timestamp,latitude,longitude,speed,accelerometerX,accelerometerY,accelerometerZ,gyroX,gyroY,gyroZ
1492638964.5,40.447444787735,-79.9441886564716,0,0.016998291015625,-0.962234497070312,0.203887939453125,-0.016994429864123,0.019258649422908,0.00723980342338
1492638964.8,40.447444787735,-79.9441886564716,0,0.050750732421875,-0.962997436523438,0.193954467773438,-0.018083130117747,0.004372644193801,0.00086978841202
1492638964.9,40.447444787735,-79.9441886564716,0,0.03741455078125,-0.959228515625,0.191543579101562,-0.014992797988819,-0.009475793474611,0.000937166387599
1492638965.1,40.4474447940709,-79.9441886568162,0,0.053787231445313,-0.963851928710938,0.277252197265625,-0.046893473106333,-0.001822134817832,0.001657018830247
1492638965.3,40.4474447940709,-79.9441886568162,0,0.031646728515625,-0.9530029296875,0.27105712890625,-0.007370564632903,0.003238403885536,-0.00434867574399
1492638965.5,40.4474447940709,-79.9441886568162,0,0.038772583007813,-0.947341918945312,0.283523559570312,-0.012811402739935,-0.008426774321229,-0.002241849005629
1492638965.7,40.4474447940709,-79.9441886568162,0,0.044479370117188,-0.947998046875,0.278518676757812,-0.017015735152843,-0.003081011065113,-0.003364904037315
1492638965.9,40.4474447940709,-79.9441886568162,0,0.05328369140625,-0.9471435546875,0.274276733398438,-0.021337246653715,-0.009435047109933,-0.002326537528293
1492638966.1,40.4474447940709,-79.9441886568162,0,0.048873901367188,-0.94635009765625,0.2652587890625,-0.02671816363622,-0.007271761356461,0.002943858268974
1492638966.3,40.4474535244086,-79.9441891316783,0.409999996423721,0.050888061523438,-0.93658447265625,0.295486450195312,-0.025608158093875,-0.005151885128758,0.000817324138545
1492638966.5,40.4474535244086,-79.9441891316783,0.409999996423721,0.036956787109375,-0.932571411132812,0.322357177734375,-0.026482473879748,0.006553506810467,-0.006685333284426
1492638966.7,40.4474535244086,-79.9441891316783,0.409999996423721,0.053878784179688,-0.9285888671875,0.334365844726562,-0.016963803511587,-0.002018143474062,-0.006565757351481
1492638966.9,40.4474535244086,-79.9441891316783,0.409999996423721,0.069717407226563,-0.923843383789062,0.325973510742188,-0.020331104393883,-0.009440906064331,0.001948634969611
1492638967.1,40.4474535244086,-79.9441891316783,0.409999996423721,0.026840209960938,-0.934616088867188,0.354171752929688,-0.017927335193977,-0.004140682862855,-0.01509985706464
1492638967.3,40.4474654602074,-79.9441897808925,1.47000002861023,0.065338134765625,-0.94378662109375,0.332443237304688,-0.027828169178565,-0.032795497243781,-0.007663778668921
1492638967.5,40.4474654602074,-79.9441897808925,1.47000002861023,0.120620727539062,-0.899734497070312,0.317001342773438,-0.05342833778917,-0.036883715833161,-0.006849117691466
1492638967.7,40.4474654602074,-79.9441897808925,1.47000002861023,0.051376342773438,-0.9091796875,0.344772338867188,-0.029558158622681,-0.003002181496846,-0.020552945712687
1492638967.9,40.4474654602074,-79.9441897808925,1.47000002861023,0.108840942382812,-0.875656127929688,0.398834228515625,-0.013630324775135,-0.053091980543493,0.033050095443992
1492638968.1,40.4474870582015,-79.9441909556546,3.05999994277954,0.089599609375,-0.93865966796875,0.342697143554688,-0.044044157056058,-0.03800623823263,0.007110640110512
1492638968.3,40.4474870582015,-79.9441909556546,3.05999994277954,0.040237426757813,-0.893035888671875,0.395462036132812,0.022392657393713,-0.01716700270276,-0.011454788480649
1492638968.5,40.4474870582015,-79.9441909556546,3.05999994277954,0.061813354492188,-0.947723388671875,0.404266357421875,-0.016959808769952,-0.007337275119277,-0.009750631699107
1492638968.7,40.4474870582015,-79.9441909556546,3.05999994277954,0.071990966796875,-0.906295776367188,0.350509643554688,-0.039526903215065,-0.02314526671777,-0.003543602146459
1492638968.9,40.4474870582015,-79.9441909556546,3.05999994277954,0.077072143554688,-0.918655395507812,0.363677978515625,-0.013965350440267,-0.022247781430413,-0.003284210256286
1492638969.1,40.4474870582015,-79.9441909556546,3.05999994277954,0.042266845703125,-0.934371948242188,0.33038330078125,-0.024864337201416,-0.014727280828138,0.018975289082924
1492638969.4,40.4475265260189,-79.9441931023953,4.78999996185303,0.073501586914063,-0.929916381835938,0.343215942382812,-0.016026903440097,-0.019043732322939,-0.006512227813571
1492638969.5,40.4475265260189,-79.9441931023953,4.78999996185303,0.0333251953125,-0.932235717773438,0.34979248046875,-0.02484436349324,-0.029621009224406,0.009418002878956
1492638969.7,40.4475265260189,-79.9441931023953,4.78999996185303,0.090957641601563,-0.939727783203125,0.322647094726562,-0.084209153668306,0.051599278752503,-0.043643883944219
1492638969.9,40.4475265260189,-79.9441931023953,4.78999996185303,0.12060546875,-0.916290283203125,0.320571899414062,-0.040509077025086,-0.031650337975047,-0.014193849661795
1492638970.1,40.4475811920784,-79.9441960758017,6.48000001907349,0.065841674804688,-0.937332153320312,0.236480712890625,-0.05217185838687,0.000339286722876,-0.000535029062997
1492638970.3,40.4475811920784,-79.9441960758017,6.48000001907349,0.06866455078125,-0.988800048828125,0.214096069335938,-0.010554107399984,-0.014825817788471,-0.014996792730454
1492638970.6,40.4475811920784,-79.9441960758017,6.48000001907349,0.022216796875,-0.921157836914062,0.310745239257812,-0.007725297690102,-0.064826667254709,0.061928615356485
1492638970.8,40.4475811920784,-79.9441960758017,6.48000001907349,0.055999755859375,-0.981475830078125,0.270980834960938,-0.06307084514802,-0.062351791653698,-0.016478042928756
1492638971,40.4475811920784,-79.9441960758017,6.48000001907349,0.115386962890625,-0.970138549804688,0.299453735351562,-0.023350862753924,-0.023252858425809,-0.018304705120442
1492638971.2,40.4475811920784,-79.9441960758017,6.48000001907349,0.08563232421875,-0.896804809570312,0.112136840820312,-0.287364136367256,-0.176828037426863,0.046560045337855
1492638971.4,40.4476458405538,-79.9441995921734,7.28999996185303,0.093658447265625,-0.908981323242188,0.29986572265625,0.067696755961487,-0.034477017156057,0.014642858621583
1492638971.6,40.4476458405538,-79.9441995921734,7.28999996185303,0.04351806640625,-0.906173706054688,0.2681884765625,-0.045947251971028,-0.015656457732467,0.002768622269246
1492638971.8,40.4476458405538,-79.9441995921734,7.28999996185303,-0.036392211914063,-0.952133178710938,0.379074096679688,-0.000101732753641,-0.09679258981893,0.032235168150428
1492638972,40.4476458405538,-79.9441995921734,7.28999996185303,0.070770263671875,-0.905853271484375,0.271804809570312,-0.035494344692467,-0.033806965825793,0.007187339149906
1492638972.2,40.4476458405538,-79.9441995921734,7.28999996185303,0.00543212890625,-0.986602783203125,0.294540405273438,0.035216843306881,-0.098088217689254,0.018739333010343
1492638972.4,40.4477217774981,-79.9442037225496,8.22999954223633,0.100051879882812,-0.89385986328125,0.233139038085938,-0.027353860188422,-0.138096620429405,0.0555194518771
1492638972.6,40.4477217774981,-79.9442037225496,8.22999954223633,0.090438842773438,-0.964645385742188,0.298248291015625,0.031195470060861,0.005112470344625,-0.019951870254656
1492638972.8,40.4477217774981,-79.9442037225496,8.22999954223633,0.00811767578125,-1.01890563964844,0.337371826171875,0.004235757713771,-0.041503501376122,0.056659817455872
1492638973,40.4477217774981,-79.9442037225496,8.22999954223633,0.12213134765625,-1.00016784667969,0.291824340820312,0.018680477150252,-0.013945376732091,0.027948810375946
1492638973.2,40.4477217774981,-79.9442037225496,8.22999954223633,0.103485107421875,-0.944854736328125,0.357315063476562,-0.010089918421983,-0.049927612536261,0.009621468386238
1492638973.4,40.4478022024288,-79.9442080970372,9.56999969482422,0.08355712890625,-0.937637329101562,0.343582153320312,-0.026210032500233,-0.018970495392961,0.037098100300913
1492638973.6,40.4478022024288,-79.9442080970372,9.56999969482422,0.127914428710938,-0.914443969726562,0.248504638671875,-0.038886945605119,-0.034846397599251,0.021016069426251
1492638973.8,40.4478022024288,-79.9442080970372,9.56999969482422,0.0909423828125,-0.974761962890625,0.26123046875,-0.025482456890423,0.094831704308305,-0.031425833495153
1492638974,40.4478022024288,-79.9442080970372,9.56999969482422,0.113739013671875,-0.929489135742188,0.280899047851562,-0.027138410456235,0.016127304613193,-0.031239678534957
1492638974.2,40.4478022024288,-79.9442080970372,9.56999969482422,0.122283935546875,-0.972640991210938,0.224624633789062,0.001843972738771,-0.08616497917286,0.051419515378923
1492638974.4,40.4478944953294,-79.9442131170496,10.7200002670288,0.045059204101563,-0.954483032226562,0.200149536132812,0.007990548534674,-0.023449666030366,0.025731462452346
1492638974.6,40.4478944953294,-79.9442131170496,10.7200002670288,0.048614501953125,-0.960052490234375,0.228271484375,0.028972263182863,-0.043794885178026,0.03772713895039
1492638974.8,40.4478944953294,-79.9442131170496,10.7200002670288,0.042388916015625,-0.956451416015625,0.313812255859375,-0.080947580281286,-0.009047557171326,-0.004004062698934
1492638975,40.4478944953294,-79.9442131170496,10.7200002670288,0.071685791015625,-0.936599731445312,0.28662109375,-0.035326565543792,-0.011469968498862,0.007131412767014
1492638975.2,40.4478944953294,-79.9442131170496,10.7200002670288,0.101287841796875,-0.920181274414062,0.223190307617188,-0.002516420914016,0.053199039619314,-0.020421119238728
1492638975.4,40.4479955076571,-79.9442186113307,11.4300003051758,0.062484741210938,-0.914413452148438,0.211669921875,0.036531912253162,-0.060866280397652,0.020789168101377
1492638975.6,40.4479955076571,-79.9442186113307,11.4300003051758,0.102279663085938,-0.99810791015625,0.2220458984375,0.051447478570369,-0.069473883356897,0.015633021914874
1492638975.8,40.4479955076571,-79.9442186113307,11.4300003051758,-0.007522583007813,-0.874267578125,0.279708862304688,0.044267329955406,-0.05453701175097,0.003792607708382
1492638976,40.4479955076571,-79.9442186113307,11.4300003051758,-0.010208129882813,-0.923934936523438,0.3155517578125,-0.024136495275497,-0.014728079776465,0.043505665883643
1492638976.2,40.4479955076571,-79.9442186113307,11.4300003051758,0.1375732421875,-1.02006530761719,0.224853515625,-0.037813159053599,0.093842872595558,-0.064602162774815
1492638976.4,40.4480997553829,-79.9442242815922,11.9499998092651,0.127960205078125,-0.99072265625,0.16168212890625,0.090890492211096,-0.051646150387689,0.02238813001986
1492638976.6,40.4480997553829,-79.9442242815922,11.9499998092651,0.078125,-0.885116577148438,0.199798583984375,-0.074615648473513,-0.0686491023673,0.045260422725897
1492638976.8,40.4480997553829,-79.9442242815922,11.9499998092651,0.1104736328125,-1.00247192382812,0.156646728515625,0.027418575002911,0.073215358372349,-0.018033861637581
1492638977,40.4480997553829,-79.9442242815922,11.9499998092651,0.1201171875,-0.968505859375,0.168167114257812,0.003356648237936,0.025507756920779,0.002100967783964
1492638977.2,40.4482092164729,-79.9442302354199,12.1300001144409,0.086029052734375,-0.88226318359375,0.236358642578125,-0.070620640522285,0.010025203607494,-0.047662327713039
1492638977.4,40.4482092164729,-79.9442302354199,12.1300001144409,0.0380859375,-0.928070068359375,0.182205200195312,-0.027921379816718,-0.006198507437159,0.013590909991001
1492638977.6,40.4482092164729,-79.9442302354199,12.1300001144409,-0.054962158203125,-1.05821228027344,0.174179077148438,0.008504005992841,-0.096849581466258,0.02592613952803
1492638977.8,40.4482092164729,-79.9442302354199,12.1300001144409,-0.031814575195313,-0.956756591796875,0.162994384765625,0.004653075056586,-0.013864416634953,-0.036167858132148
1492638978,40.4482092164729,-79.9442302354199,12.1300001144409,0.092178344726563,-0.942901611328125,0.169326782226562,0.011134143885403,-0.034107636712863,0.023658724175937
1492638978.2,40.4482092164729,-79.9442302354199,12.1300001144409,0.073455810546875,-0.951431274414062,0.195999145507812,0.01398585678066,0.094574176630894,-0.036352148879582
1492638978.4,40.4483165636199,-79.9442360742656,11.9200000762939,0.085418701171875,-0.9730224609375,0.182388305664062,-0.001053280211126,-0.068064804824136,0.039614787531038
1492638978.6,40.4483165636199,-79.9442360742656,11.9200000762939,0.09393310546875,-0.947174072265625,0.176803588867188,-0.010561297934927,-0.065876219040309,0.035246937027199
1492638978.8,40.4483165636199,-79.9442360742656,11.9200000762939,0.08489990234375,-1.09620666503906,0.195205688476562,0.073050242384765,0.017602163224879,-0.036615002879172
1492638979,40.4483165636199,-79.9442360742656,11.9200000762939,0.087173461914063,-0.928970336914062,0.191604614257812,-0.044508346034058,-0.00290444348484,-0.017507621006181
1492638979.2,40.4483165636199,-79.9442360742656,11.9200000762939,0.048065185546875,-0.960525512695312,0.216323852539062,-0.04080868264772,-0.03058107879738,0.008190818248648
1492638979.4,40.4483816183094,-79.9442396127322,11.710000038147,0.157745361328125,-1.01716613769531,0.125885009765625,0.011526161197863,0.070126357823967,-0.025652100251861
1492638979.6,40.4483816183094,-79.9442396127322,11.710000038147,0.167800903320312,-1.01300048828125,0.125106811523438,-0.13728462261304,0.122154139195864,-0.017714015990662
1492638979.7,40.4483816183094,-79.9442396127322,11.710000038147,0.091522216796875,-0.891693115234375,0.192901611328125,-0.077038858749376,0.016462596594434,0.035420042498054
1492638979.9,40.4483816183094,-79.9442396127322,11.710000038147,0.168777465820312,-0.944671630859375,0.105331420898438,-0.019520970790281,0.11925315782044,-0.064480456312999
1492638980.1,40.4483816183094,-79.9442396127322,11.710000038147,0.148529052734375,-0.921600341796875,0.21478271484375,0.046270293411255,0.012471583384841,0.04948739200807
1492638980.3,40.4485237540522,-79.9442580174709,11.2200002670288,0.119003295898438,-0.9361572265625,0.171295166015625,-0.024811073979614,0.023568975647201,0.03593642943342
1492638980.5,40.4485237540522,-79.9442580174709,11.2200002670288,0.15380859375,-0.982223510742188,0.147674560546875,0.012104333470519,0.013758689139676,0.056597765802473
1492638980.7,40.4485237540522,-79.9442580174709,11.2200002670288,0.11700439453125,-0.9417724609375,0.183746337890625,0.005238437864186,0.01592410542202,0.014939534767018
1492638980.9,40.4485237540522,-79.9442580174709,11.2200002670288,0.04083251953125,-0.979568481445312,0.18695068359375,0.030131270889266,0.127445307649633,-0.030940605544541
1492638981.1,40.4485237540522,-79.9442580174709,11.2200002670288,0.089324951171875,-0.952346801757812,0.161331176757812,-0.023913588692258,0.111849037357802,0.018658372913204
1492638981.3,40.4486223748314,-79.9442727212118,10.9099998474121,0.122894287109375,-0.950958251953125,0.178207397460938,-0.040832118465313,0.100255764500469,0.003588076936664
1492638981.5,40.4486223748314,-79.9442727212118,10.9099998474121,0.11273193359375,-0.979385375976562,0.152252197265625,-0.05159208821756,0.10031462036056,-0.065826151611816
1492638981.7,40.4486223748314,-79.9442727212118,10.9099998474121,0.073715209960938,-1.00279235839844,0.193023681640625,0.00890161594359,0.228619862726179,-0.135908034645578
1492638981.9,40.4486223748314,-79.9442727212118,10.9099998474121,0.1282958984375,-1.03179931640625,0.170562744140625,-0.034162231515209,0.133174832418829,-0.076394640081686
1492638982.1,40.4486223748314,-79.9442727212118,10.9099998474121,0.084426879882813,-1.08479309082031,0.16888427734375,0.06181702890681,0.005980128227773,-0.000448742643678
1492638982.3,40.4487055575243,-79.9442936279338,10.5600004196167,0.14166259765625,-0.957809448242188,0.170196533203125,0.025394306258342,0.1008864010466,-0.01066249805635
1492638982.5,40.4487055575243,-79.9442936279338,10.5600004196167,0.169967651367188,-0.925308227539062,0.16754150390625,-0.071740766076773,0.136614304966667,-0.052265335341132
1492638982.7,40.4487055575243,-79.9442936279338,10.5600004196167,0.138641357421875,-0.936737060546875,0.255996704101562,-0.009777795942226,0.067073576266409,-0.026928553362336
1492638983,40.4487055575243,-79.9442936279338,10.5600004196167,0.12567138671875,-0.928634643554688,0.221237182617188,0.044854024343551,-0.046024749958749,0.043226566601403
1492638983.1,40.4487055575243,-79.9442936279338,10.5600004196167,-0.008834838867188,-1.17503356933594,0.10260009765625,0.133115976558739,0.06614173620099,-0.041456363424828
1492638983.3,40.4488068975034,-79.9443344618325,10.4499998092651,0.046218872070313,-0.842971801757812,0.348358154296875,-0.155976817672088,-0.04365959659465,0.012376508533925
1492638983.5,40.4488068975034,-79.9443344618325,10.4499998092651,0.253555297851562,-1.084228515625,0.305450439453125,-0.222279941435137,0.398182264067088,-0.192023235658528
1492638983.7,40.4488068975034,-79.9443344618325,10.4499998092651,0.215072631835938,-0.900863647460938,0.24359130859375,-0.158050887529042,0.238213634237081,-0.14830425057157
1492638983.9,40.4488068975034,-79.9443344618325,10.4499998092651,0.077346801757813,-0.933807373046875,0.276458740234375,-0.115491176464594,0.036914075869588,-0.022601981855394
1492638984.1,40.4488068975034,-79.9443344618325,10.4499998092651,0.1243896484375,-0.97222900390625,0.242401123046875,-0.092082523115016,0.098450673913613,-0.065169682403111
1492638984.3,40.448897325708,-79.9443717737897,10.9399995803833,0.09326171875,-0.821044921875,0.237457275390625,-0.113729495403507,0.160284214419182,-0.08367652145029
1492638984.5,40.448897325708,-79.9443717737897,10.9399995803833,0.124908447265625,-0.8739013671875,0.343856811523438,0.009246495304755,-0.108552576560502,0.04302336741023
1492638984.7,40.448897325708,-79.9443717737897,10.9399995803833,0.003143310546875,-1.06161499023438,0.26373291015625,-0.010181531163482,-0.12330409215456,0.131358290239286
1492638984.9,40.448897325708,-79.9443717737897,10.9399995803833,0.011642456054688,-0.974578857421875,0.201889038085938,-0.107264938173448,0.015587748176343,-0.012866796490609
1492638985.1,40.448897325708,-79.9443717737897,10.9399995803833,-0.0009765625,-0.913421630859375,0.201797485351562,0.022828883180268,-0.003332946104234,0.041824678603585
1492638985.3,40.4489954136115,-79.9444122462471,11.4099998474121,-0.003616333007813,-0.920196533203125,0.344863891601562,-0.109679360017714,-0.006733270184047,-0.004304200953786
1492638985.5,40.4489954136115,-79.9444122462471,11.4099998474121,0.125396728515625,-0.959197998046875,0.235519409179688,0.044977062385912,-0.008806008460456,-0.02297349282746
1492638985.7,40.4489954136115,-79.9444122462471,11.4099998474121,0.034698486328125,-0.949493408203125,0.222824096679688,-0.062792811130215,0.063148076819632,-0.123420472294196
1492638985.9,40.4489954136115,-79.9444122462471,11.4099998474121,0.018402099609375,-0.981399536132812,0.20135498046875,-0.014621287016753,-0.000972053797879,-0.021471469972655
1492638986.1,40.4490947752844,-79.9444537892614,11.8400001525879,0.12408447265625,-0.863555908203125,0.202728271484375,0.032472722119663,-0.022544990208066,0.027045998766409
1492638986.3,40.4490947752844,-79.9444537892614,11.8400001525879,0.0794677734375,-0.974441528320312,0.274246215820312,-0.002606435758861,0.136165562322988,-0.046225285988832
1492638986.5,40.4490947752844,-79.9444537892614,11.8400001525879,0.067947387695313,-0.935577392578125,0.192230224609375,-0.017956629965968,0.042667569088596,0.012500611840723
1492638986.7,40.4490947752844,-79.9444537892614,11.8400001525879,-0.042526245117188,-0.992843627929688,0.285858154296875,0.02340013123409,0.043464386886747,0.025716548750241
1492638986.9,40.4490947752844,-79.9444537892614,11.8400001525879,-0.104904174804688,-0.893112182617188,0.312393188476562,0.019286346298245,-0.005445898113103,-0.011516840134048
1492638987.1,40.4490947752844,-79.9444537892614,11.8400001525879,0.096923828125,-0.987396240234375,0.204879760742188,0.025476331619916,0.005154281973739,0.008777246320683
1492638987.3,40.4491986437395,-79.9444973386857,12.2399997711182,0.061859130859375,-0.934768676757812,0.289657592773438,-0.002636263163069,0.025542111698841,-0.026748257356538
1492638987.5,40.4491986437395,-79.9444973386857,12.2399997711182,0.130783081054688,-0.951187133789062,0.186813354492188,0.012770922691366,-0.037303962653176,0.057802579879625
1492638987.7,40.4491986437395,-79.9444973386857,12.2399997711182,0.037200927734375,-0.94805908203125,0.28009033203125,-0.060568538987781,0.018477277959079,0.000398408899076
1492638987.9,40.4491986437395,-79.9444973386857,12.2399997711182,-0.005081176757813,-0.877090454101562,0.194976806640625,-0.037363617461594,0.070443273993686,-0.032550752739603
1492638988.1,40.4491986437395,-79.9444973386857,12.2399997711182,-0.06231689453125,-1.02424621582031,0.165603637695312,0.007572432243531,-0.083015524867732,0.023748472704673
1492638988.3,40.4493065270671,-79.944542571445,12.460000038147,-0.093917846679688,-0.871261596679688,0.24798583984375,-0.070212111611067,-0.087815606416491,0.101864313798877
1492638988.5,40.4493065270671,-79.944542571445,12.460000038147,-0.134674072265625,-0.952926635742188,0.223480224609375,-0.071358868776455,-0.062288142103645,0.044211137256405
1492638988.7,40.4493065270671,-79.944542571445,12.460000038147,-0.135345458984375,-0.990646362304688,0.220611572265625,-0.014590128031999,0.053269347072092,-0.071723189213578
1492638988.9,40.4493065270671,-79.944542571445,12.460000038147,-0.133102416992188,-1.01411437988281,0.1566162109375,0.033986995515482,-0.092759232348005,0.033639985625445
1492638989.1,40.4493065270671,-79.944542571445,12.460000038147,-0.154586791992188,-0.874160766601562,0.220382690429688,0.134722395328274,-0.111494304300603,0.054977764911378
1492638989.3,40.449408681765,-79.9445854023342,12.3599996566772,-0.0439453125,-0.98980712890625,0.212814331054688,-0.027893416625272,-0.02002856929405,0.004030960625944
1492638989.5,40.449408681765,-79.9445854023342,12.3599996566772,-0.149749755859375,-0.976348876953125,0.220413208007812,-0.076717148889695,-0.117571105275946,0.016577378837416
1492638989.7,40.449408681765,-79.9445854023342,12.3599996566772,-0.165008544921875,-1.0341796875,0.149063110351562,0.086447806880626,-0.099486643577654,0.009671535814732
1492638989.9,40.449408681765,-79.9445854023342,12.3599996566772,-0.065994262695313,-0.967742919921875,0.234024047851562,-0.024109331032378,-0.060484915729553,-0.060864948817107
1492638990.2,40.4495115838199,-79.9446285465714,12.1700000762939,0.042312622070313,-0.971786499023438,0.194488525390625,-0.042555450006703,0.035369708753451,-0.061301174603662
1492638990.3,40.4495115838199,-79.9446285465714,12.1700000762939,0.064743041992188,-0.89288330078125,0.217864990234375,-0.080698574719363,0.026053704944245,-0.003025883630548
1492638990.5,40.4495115838199,-79.9446285465714,12.1700000762939,0.130233764648438,-0.919891357421875,0.260528564453125,0.013875335595422,-0.000103064334186,-0.079823726301272
1492638990.7,40.4495115838199,-79.9446285465714,12.1700000762939,0.2694091796875,-1.06512451171875,0.268661499023438,0.084921016627684,0.144079411818268,-0.211678962399967
1492638990.9,40.4495115838199,-79.9446285465714,12.1700000762939,0.312026977539062,-0.924026489257812,0.326324462890625,0.056130647347273,-0.051412058527871,0.072143702349702
1492638991.1,40.4495115838199,-79.9446285465714,12.1700000762939,0.085159301757813,-1.02902221679688,0.290023803710938,-0.118987108027541,0.120969032510778,-0.032450617882616
1492638991.3,40.4496182633568,-79.9446732746114,12.1400003433228,0.075881958007813,-1.03836059570312,0.225784301757812,0.062298528431897,-0.059972523535821,0.006123672610528
1492638991.5,40.4496182633568,-79.9446732746114,12.1400003433228,-0.007537841796875,-0.947540283203125,0.3577880859375,0.102746885384129,0.031239944851066,-0.020352942314822
1492638991.7,40.4496182633568,-79.9446732746114,12.1400003433228,0.221893310546875,-0.849807739257812,0.243743896484375,-0.139065212117867,0.129608327086995,-0.039075763726406
1492638991.9,40.4496182633568,-79.9446732746114,12.1400003433228,0.02044677734375,-1.0196533203125,0.297927856445312,-0.015980298121021,-0.026491262311345,-0.013956029376451
1492638992.1,40.4496182633568,-79.9446732746114,12.1400003433228,-0.014907836914063,-0.949081420898438,0.315643310546875,0.003572364286232,0.007419034164743,-0.023439279702114
1492638992.3,40.4497272925644,-79.9447189878092,12.7399997711182,0.093551635742188,-0.957321166992188,0.246383666992188,-0.036378780490482,0.001290035232034,-0.06434862983904
1492638992.5,40.4497272925644,-79.9447189878092,12.7399997711182,0.009109497070313,-1.05123901367188,0.204025268554688,-0.008994027633416,0.004306864114876,-0.040619331894216
1492638992.7,40.4497272925644,-79.9447189878092,12.7399997711182,0.085586547851563,-0.985336303710938,0.169754028320312,-0.042715772304326,-0.01461409648181,0.000666589220847
1492638992.9,40.4497272925644,-79.9447189878092,12.7399997711182,0.142471313476562,-0.993850708007812,0.188018798828125,-0.05569122576741,0.121615648023449,-0.065923090675494
1492638993.1,40.4497272925644,-79.9447189878092,12.7399997711182,0.16650390625,-0.828720092773438,0.25225830078125,-0.003183010134863,0.034050112433317,-0.059828446520848
1492638993.3,40.449836364057,-79.9447647187361,12.6300001144409,0.147750854492188,-0.934921264648438,0.198318481445312,-0.086335155166516,-0.005820338562368,0.002329733321601
1492638993.5,40.449836364057,-79.9447647187361,12.6300001144409,0.065841674804688,-0.946395874023438,0.153518676757812,0.00349779577571,0.016994696180232,-0.012802614308338
1492638993.7,40.449836364057,-79.9447647187361,12.6300001144409,0.140487670898438,-0.907135009765625,0.239288330078125,-0.073007898123432,0.094072437081523,-0.060698234932868
1492638993.9,40.449836364057,-79.9447647187361,12.6300001144409,0.087936401367188,-0.9600830078125,0.20623779296875,0.04473338314617,0.011410846322663,0.005759618489514
1492638994.1,40.449836364057,-79.9447647187361,12.6300001144409,0.065994262695313,-0.984161376953125,0.17462158203125,-0.10128081520404,0.052774531741555,-0.040623060319742
1492638994.3,40.4499386068649,-79.9448075865676,12.210000038147,0.095504760742188,-1.02592468261719,0.139419555664062,-0.046298256602701,0.036464267961474,-0.020826186040529
1492638994.5,40.4499386068649,-79.9448075865676,12.210000038147,0.030319213867188,-0.88714599609375,0.1610107421875,-0.051593153481996,-0.050721767173322,0.007066165320307
1492638994.7,40.4499386068649,-79.9448075865676,12.210000038147,0.118423461914062,-1.01243591308594,0.139022827148438,-0.055101069269848,0.037588654573705,0.000405066801801
1492638994.9,40.4499386068649,-79.9448075865676,12.210000038147,0.035049438476563,-0.966522216796875,0.230545043945312,-0.016140087786425,-0.03606266326909,-0.007535680620488
1492638995.1,40.4499386068649,-79.9448075865676,12.210000038147,0.125625610351562,-1.03756713867188,0.145553588867188,0.016845825475296,0.063708938545203,-0.02877971663605
1492638995.3,40.4500352291631,-79.9448480978611,11.6899995803833,0.074432373046875,-1.04583740234375,0.11224365234375,0.087748228440912,-0.050562510140135,0.019154519824286
1492638995.5,40.4500352291631,-79.9448480978611,11.6899995803833,0.035675048828125,-0.906280517578125,0.050460815429688,-0.049313753904997,-0.04966209537558,0.074258252255224
1492638995.8,40.4500352291631,-79.9448480978611,11.6899995803833,0.110443115234375,-1.00871276855469,0.035064697265625,-0.018870094219865,-0.036037895870952,0.036151080217281
1492638995.9,40.4500352291631,-79.9448480978611,11.6899995803833,0.035049438476563,-0.905075073242188,0.039169311523438,-0.031626902157454,-0.039146603811402,0.032829852021843
1492638996.1,40.4500352291631,-79.9448480978611,11.6899995803833,0.084243774414063,-0.952011108398438,0.0064697265625,-0.093476155313454,0.0527196706231,-0.066132148821066
1492638996.3,40.4501334446522,-79.9448892771394,10.3800001144409,0.2232666015625,-1.0179443359375,0.0782470703125,0.059747220107601,-0.181200681620664,0.125826372022974
1492638996.5,40.4501334446522,-79.9448892771394,10.3800001144409,0.15802001953125,-1.03974914550781,0.053451538085938,-0.113551862558799,0.214522952128063,-0.1445888745348
1492638996.7,40.4501334446522,-79.9448892771394,10.3800001144409,-0.065719604492188,-1.01611328125,0.1380615234375,0.021994781126855,-0.158621869266755,0.095527588301142
1492638996.9,40.4501334446522,-79.9448892771394,10.3800001144409,0.103286743164062,-0.983749389648438,0.07373046875,-0.076883063825607,-0.015454590121839,0.006716225953071
1492638997.1,40.4501334446522,-79.9448892771394,10.3800001144409,-0.019485473632813,-0.938827514648438,0.077178955078125,-0.008206797215188,-0.045681734810347,0.029887857965632
1492638997.3,40.4502126801874,-79.9449224986015,8.78999996185303,0.122970581054688,-1.00759887695312,0.00244140625,-0.035804070327243,0.060865481449325,0.003741208699343
1492638997.5,40.4502126801874,-79.9449224986015,8.78999996185303,0.103927612304688,-0.904525756835938,0.042160034179688,-0.033698575169427,0.022554843904099,-0.015330220498932
1492638997.7,40.4502126801874,-79.9449224986015,8.78999996185303,0.078384399414063,-0.99462890625,0.021224975585938,-0.007568970134114,0.013880129285384,0.015879896947925
1492638997.9,40.4502126801874,-79.9449224986015,8.78999996185303,0.0206298828125,-0.973052978515625,0.022537231445313,-0.029402363698911,0.046994140595538,-0.004687163518539
1492638998.1,40.4502783869879,-79.9449500478063,7.09000015258789,0.063705444335938,-0.956878662109375,0.015289306640625,-0.003773432948533,-0.02443636721424,0.028812207201349
1492638998.3,40.4502783869879,-79.9449500478063,7.09000015258789,0.046615600585938,-0.947982788085938,0.117355346679688,-0.080873011770763,-0.006921289357007,-0.008273642558549
1492638998.5,40.4502783869879,-79.9449500478063,7.09000015258789,0.104263305664062,-0.997589111328125,0.004470825195313,-0.03631220146323,0.060862285656017,-0.036780118866757
1492638998.7,40.4502783869879,-79.9449500478063,7.09000015258789,0.057052612304688,-0.986968994140625,0.03790283203125,-0.014561898524444,-0.039257923944967,0.030872428620635
1492638998.9,40.4502783869879,-79.9449500478063,7.09000015258789,0.080642700195313,-1.00306701660156,-0.0235595703125,-0.01152962330728,-0.000990962241618,-0.013976269400736
1492638999.1,40.4502783869879,-79.9449500478063,7.09000015258789,0.0037841796875,-1.00762939453125,-0.027450561523438,-0.017479125182517,-0.0413698106894,0.009523730374232
1492638999.3,40.4503305018491,-79.9449718982536,5.26999998092651,0.06591796875,-1.03413391113281,-0.041641235351563,-0.035161449556207,0.00661183003834,0.004954012259765
1492638999.5,40.4503305018491,-79.9449718982536,5.26999998092651,0.00927734375,-0.989883422851562,0.009857177734375,-0.039664056011204,-0.019951337622438,0.008175105598216
1492638999.7,40.4503305018491,-79.9449718982536,5.26999998092651,0.032806396484375,-1.03297424316406,-0.029190063476563,-0.015176556104035,-0.010536264220681,0.013732590160994
1492638999.9,40.4503305018491,-79.9449718982536,5.26999998092651,0.043655395507813,-1.00077819824219,0.011398315429688,-0.024407605074467,0.001221591992019,-0.005584116173678
1492639000.1,40.4503305018491,-79.9449718982536,5.26999998092651,0.028335571289063,-1.01445007324219,0.054244995117188,0.003332679788125,-0.012789032186779,-0.016992299335251
1492639000.3,40.4503588166809,-79.9449837699487,2.91000008583069,0.049835205078125,-0.999237060546875,0.084075927734375,-0.008484564916883,-0.00526427052676,-0.005404352800098
1492639000.5,40.4503588166809,-79.9449837699487,2.91000008583069,0.071136474609375,-0.963516235351562,0.127273559570312,-0.021238709693382,-0.004117779677481,-0.006604106871179
1492639000.7,40.4503588166809,-79.9449837699487,2.91000008583069,0.056198120117188,-0.983245849609375,0.15045166015625,-0.023277625823947,0.000149669653262,-0.010900850973912
1492639000.9,40.4503588166809,-79.9449837699487,2.91000008583069,0.078857421875,-0.982391357421875,0.136703491210938,-0.002398442877725,-0.020193685281635,0.008557269214643
1492639001.1,40.4503588166809,-79.9449837699487,2.91000008583069,0.060897827148438,-0.984130859375,0.12200927734375,-0.003247458633243,-0.014871624159221,-0.004259726163582
1492639001.3,40.4503787414209,-79.9449921238898,1.36000001430511,0.070068359375,-0.979476928710938,0.127349853515625,-0.016105466692254,-0.015850868492043,0.00094222639367
1492639001.5,40.4503787414209,-79.9449921238898,1.36000001430511,0.07073974609375,-0.984893798828125,0.128189086914062,-0.009605223103589,-0.001001082253761,0.000970455901225
1492639001.7,40.4503787414209,-79.9449921238898,1.36000001430511,0.060684204101563,-0.978744506835938,0.124893188476562,-0.019143867179926,-0.00093956323258,-0.002326004896075
1492639001.9,40.4503787414209,-79.9449921238898,1.36000001430511,0.070144653320313,-0.9781494140625,0.132049560546875,-0.010673949649038,-0.007376956219519,-0.00222267424578
1492639002.1,40.4503787414209,-79.9449921238898,1.36000001430511,0.072784423828125,-0.976211547851562,0.150604248046875,-0.018055166926301,0.002244512166719,-0.002323075418876
1492639002.3,40.4503843067339,-79.9449944572852,0.419999986886978,0.083328247070313,-0.952499389648438,0.2322998046875,-0.00538491172414,-0.004219512431122,0.002088184610731
1492639002.5,40.4503843067339,-79.9449944572852,0.419999986886978,0.073348999023438,-0.961074829101562,0.247726440429688,-0.012748818454318,-0.002045041401072,-0.003323891356528
1492639002.7,40.4503843067339,-79.9449944572852,0.419999986886978,0.088043212890625,-0.9500732421875,0.25103759765625,-0.010688597035033,-0.00737668990341,-0.001156610861421
1492639002.9,40.4503843067339,-79.9449944572852,0.419999986886978,0.084121704101563,-0.954147338867188,0.241470336914062,-0.019182483015732,-0.004130296534604,-0.001251952028446
1492639003.1,40.4503843067339,-79.9449944572852,0.419999986886978,0.083633422851563,-0.950454711914062,0.247970581054688,-0.015928366479764,-0.002024535060678,-0.004422711622295
1492639003.3,40.4503851216472,-79.9449947989578,0.159999996423721,0.069961547851563,-0.9525146484375,0.242568969726562,-0.016040219245547,-0.005213936782157,0.001981658167128
1492639003.5,40.4503851216472,-79.9449947989578,0.159999996423721,0.0791015625,-0.949172973632812,0.230316162109375,-0.01818699340026,-0.009455020818108,0.000904409506191
1492639003.7,40.4503851216472,-79.9449947989578,0.159999996423721,0.087310791015625,-0.93341064453125,0.316787719726562,-0.007303985605651,0.004301005160478,-0.008615592442515
1492639003.9,40.4503851216472,-79.9449947989578,0.159999996423721,0.0816650390625,-0.916763305664062,0.363189697265625,0.009670470550296,-6.39158661619017E-05,-0.006298109661928
1492639004.1,40.4503851216472,-79.9449947989578,0.159999996423721,0.094924926757813,-0.92095947265625,0.352005004882812,-0.017022393055569,-0.002017078209626,-0.002301503814046
1492639004.3,40.4503887565397,-79.9449963229766,0.449999988079071,0.093841552734375,-0.906082153320312,0.373367309570312,-0.026716832055675,-0.005144161961597,0.004004595331152
1492639004.5,40.4503887565397,-79.9449963229766,0.449999988079071,0.07940673828125,-0.8812255859375,0.444091796875,-0.009784986477169,0.004321245184763,0.016948090861155
1492639004.7,40.4503887565397,-79.9449963229766,0.449999988079071,0.146759033203125,-0.821807861328125,0.43017578125,0.019063439715005,-0.073513366098329,0.045165880507199
1492639004.9,40.4503887565397,-79.9449963229766,0.449999988079071,0.185714721679688,-0.89691162109375,0.510513305664062,0.00143890593697,0.024453944077435,-0.013909157741266
1492639005.1,40.4503887565397,-79.9449963229766,0.449999988079071,0.129135131835938,-0.833724975585938,0.533721923828125,-0.06391906195521,-0.048506816094703,0.052781455960389
1492639005.3,40.4504020356953,-79.9450018905918,2.22000002861023,-0.070068359375,-0.977249145507812,0.472625732421875,-0.027025758742124,-0.065775817867213,-0.006504238330301
1492639005.5,40.4504020356953,-79.9450018905918,2.22000002861023,0.01446533203125,-0.833633422851562,0.503341674804688,0.046406647259067,-0.01094718997688,-0.050674895538137
1492639005.7,40.4504020356953,-79.9450018905918,2.22000002861023,0.10015869140625,-0.890869140625,0.452682495117188,-0.01535765105816,-0.042447325666446,0.009548231456261
1492639005.9,40.4504020356953,-79.9450018905918,2.22000002861023,-0.029006958007813,-0.917129516601562,0.417129516601562,-0.031690019075289,-0.074238811179267,0.095826394975449
1492639006.1,40.4504020356953,-79.9450018905918,2.22000002861023,0.092788696289063,-0.978775024414062,0.292327880859375,0.020565995202028,0.038147119454295,-0.080920149722058
1492639006.3,40.4504409574045,-79.9450182094831,4.76000022888184,0.210586547851562,-0.838226318359375,0.394882202148438,0.129960130666995,-0.096564090597401,0.099671466957306
1492639006.5,40.4504409574045,-79.9450182094831,4.76000022888184,0.244369506835938,-0.885040283203125,0.302322387695312,-0.008103732881002,0.053238454403447,-0.001286573122617
1492639006.7,40.4504409574045,-79.9450182094831,4.76000022888184,0.094894409179688,-0.882476806640625,0.402816772460938,-0.061142982834911,-0.072987658099148,0.069932479696609
1492639006.9,40.4504409574045,-79.9450182094831,4.76000022888184,0.111114501953125,-0.821121215820312,0.466140747070312,-0.084300766409804,-0.033479130695604,0.071725852374668
1492639007.1,40.4504381710974,-79.9450170412548,6.69000005722046,0.052749633789063,-0.858383178710938,0.424774169921875,-0.105560248759689,0.003879693076027,0.011703794042571
1492639007.3,40.4504381710974,-79.9450170412548,6.69000005722046,0.016952514648438,-0.91766357421875,0.354568481445312,-0.057351440390965,-0.094283093123748,0.092416749831821
1492639007.5,40.4504381710974,-79.9450170412548,6.69000005722046,-0.0841064453125,-0.929718017578125,0.310775756835938,-0.019908993361105,0.033103891298012,-0.005620335164503
1492639007.7,40.4504381710974,-79.9450170412548,6.69000005722046,-0.064315795898438,-1.18617248535156,0.166000366210938,-0.005524727681369,-0.063790431274559,-0.020150009439758
1492639007.9,40.4504381710974,-79.9450170412548,6.69000005722046,-0.008712768554688,-1.04437255859375,0.191207885742188,0.08800655506665,-0.070779631239363,-0.010644654877047
1492639008.1,40.4504381710974,-79.9450170412548,6.69000005722046,0.023208618164063,-0.987823486328125,0.236114501953125,-0.012236692576696,-0.042466766742404,0.014911305259463
1492639008.3,40.4504425814358,-79.9450188903985,7.92999982833862,0.138504028320312,-1.02325439453125,0.170974731445312,0.058974903391478,0.069810773234792,-0.068880264749918
1492639008.5,40.4504425814358,-79.9450188903985,7.92999982833862,0.113555908203125,-0.958953857421875,0.193374633789062,-0.032412800995136,0.001267664678878,-0.042983686309988
1492639008.8,40.4504425814358,-79.9450188903985,7.92999982833862,0.104217529296875,-1.02751159667969,0.215988159179688,0.020258400096124,0.073258501582009,-0.03943156204804
1492639008.9,40.4504425814358,-79.9450188903985,7.92999982833862,0.247711181640625,-0.884628295898438,0.378021240234375,-0.014573616433241,0.177722593237021,-0.082706331865174
1492639009.1,40.4504425814358,-79.9450188903985,7.92999982833862,0.170761108398438,-0.951492309570312,0.358688354492188,-0.031206921653549,0.109766978017578,0.005794505899794
1492639009.4,40.450625080217,-79.9450974369781,7.80000019073486,0.076766967773438,-0.911788940429688,0.402633666992188,-0.025685389765487,0.01187050792681,0.015699600942126
1492639009.5,40.450625080217,-79.9450974369781,7.80000019073486,0.189346313476562,-0.896484375,0.383102416992188,-0.0038227014287,-0.021244036015562,0.034134534639873
1492639009.8,40.450625080217,-79.9450974369781,7.80000019073486,0.127716064453125,-0.913681030273438,0.3966064453125,0.025337048294905,0.067909276216476,-0.024438764059221
1492639010,40.450625080217,-79.9450974369781,7.80000019073486,0.175308227539062,-0.86297607421875,0.407440185546875,-0.046566703240581,0.091774928009112,-0.048693237371009
1492639010.1,40.4506969997767,-79.9451283922711,8.92000007629395,0.0953369140625,-0.924087524414062,0.487228393554688,-0.065165953977585,0.106782639700035,-0.081975027829838
1492639010.4,40.4506969997767,-79.9451283922711,8.92000007629395,0.241165161132812,-0.812576293945312,0.392959594726562,-0.075781314082641,0.15791426736512,-0.056626527942246
1492639010.6,40.4506969997767,-79.9451283922711,8.92000007629395,0.007888793945313,-1.01193237304688,0.445465087890625,0.120701118505116,-0.070976172527811,0.089914709987691
1492639010.8,40.4506969997767,-79.9451283922711,8.92000007629395,-0.15484619140625,-0.892684936523438,0.381790161132812,-0.075175711250757,-0.011205516602617,0.03977537614477
1492639011,40.4506969997767,-79.9451283922711,8.92000007629395,-0.08392333984375,-0.936767578125,0.409683227539062,-0.04745806325743,-0.0496834006643,0.016701748460323
1492639011.2,40.4506969997767,-79.9451283922711,8.92000007629395,-0.068496704101563,-0.936599731445312,0.3653564453125,0.026342125290301,-0.106536829931421,0.039994554302483
1492639011.4,40.450784826961,-79.9451661944522,10.3500003814697,-0.12347412109375,-0.876251220703125,0.357223510742188,0.00347622417088,-0.182964226894515,0.112460232827975
1492639011.6,40.450784826961,-79.9451661944522,10.3500003814697,-0.072601318359375,-0.93011474609375,0.390365600585938,-0.099691174349372,-0.100405966785949,-0.007158843326242
1492639011.8,40.450784826961,-79.9451661944522,10.3500003814697,0.013275146484375,-0.879318237304688,0.333709716796875,-0.011709919313078,-0.129696477719077,0.006612096354449
1492639012,40.450784826961,-79.9451661944522,10.3500003814697,0.054840087890625,-0.99859619140625,0.363983154296875,-0.024025974090259,-0.060473996769083,0.010572216895397
1492639012.2,40.450784826961,-79.9451661944522,10.3500003814697,-0.006637573242188,-0.979721069335938,0.370513916015625,-0.01955612451667,0.03522509910626,-0.030145119326934
1492639012.3,40.4508858516938,-79.9452096770628,11.8999996185303,-0.060562133789063,-0.863616943359375,0.425277709960938,-0.087592433517142,0.042049183083479,-0.035124165300946
1492639012.6,40.4508858516938,-79.9452096770628,11.8999996185303,0.107147216796875,-1.04658508300781,0.322601318359375,-0.023858993889911,0.011849735270308,-0.039724776084058
1492639012.7,40.4508858516938,-79.9452096770628,11.8999996185303,0.175033569335938,-0.88909912109375,0.245574951171875,-0.091982654574138,0.094193610911122,-0.074753600217979
1492639012.9,40.4508858516938,-79.9452096770628,11.8999996185303,0.121337890625,-0.917373657226562,0.265960693359375,0.016896691852117,-0.074562651567821,0.047278832516068
1492639013.1,40.4508858516938,-79.9452096770628,11.8999996185303,0.077102661132813,-0.921615600585938,0.216629028320312,-0.060998639503829,-0.001727326283025,0.020704213262603
1492639013.3,40.4509908055816,-79.9452548508425,12.6300001144409,0.062118530273438,-0.974090576171875,0.1917724609375,-0.046181077514737,0.024760207602794,-0.03572177864956
1492639013.5,40.4509908055816,-79.9452548508425,12.6300001144409,0.038467407226563,-0.99542236328125,0.105545043945312,0.031653001136137,-0.052329251207294,-0.007004379983017
1492639013.7,40.4509908055816,-79.9452548508425,12.6300001144409,0.042648315429688,-0.961395263671875,0.173797607421875,0.034050911381644,-0.072547970203176,0.039985765870886
1492639013.9,40.4509908055816,-79.9452548508425,12.6300001144409,0.087722778320313,-1.00570678710938,0.176864624023438,-0.03294330268428,-0.043390351008443,0.048820536471115
1492639014.1,40.4509908055816,-79.9452548508425,12.6300001144409,0.084564208984375,-0.913726806640625,0.110748291015625,0.017635719054614,-0.005428321249909,0.031114776279832
1492639014.3,40.4510955467592,-79.9452999330685,12.1300001144409,0.053619384765625,-1.07435607910156,0.090286254882813,-0.095369662848501,-0.012138421932472,0.036372388903866
1492639014.5,40.4510955467592,-79.9452999330685,12.1300001144409,-0.03173828125,-1.01448059082031,0.063613891601563,-0.000284958236638,-0.01063293696825,0.014951518991923
1492639014.7,40.4510955467592,-79.9452999330685,12.1300001144409,0.065643310546875,-0.976699829101562,0.055953979492188,-0.07864581015113,0.048368864350237,-0.062770440577059
1492639014.9,40.4510955467592,-79.9452999330685,12.1300001144409,0.1029052734375,-1.1641845703125,0.023834228515625,-0.004693821421265,0.011725099331292,-0.03952823479561
1492639015.1,40.4510955467592,-79.9452999330685,12.1300001144409,0.074905395507813,-0.909927368164062,-0.10101318359375,0.048363804344166,-0.033285518884355,0.027236414784349
1492639015.3,40.4511881203787,-79.9453397781889,10.3800001144409,0.077606201171875,-1.04483032226562,-0.048614501953125,0.01469186078564,-0.038390266061819,-0.00508157767598
1492639015.5,40.4511881203787,-79.9453397781889,10.3800001144409,0.101394653320312,-1.02633666992188,-0.136032104492188,-0.014271613965626,-0.02011458939726,0.020163857877426
1492639015.7,40.4511881203787,-79.9453397781889,10.3800001144409,-0.013534545898438,-1.00294494628906,-0.044052124023438,-0.02177080927918,0.027793814400503,-0.028016188351525
1492639015.9,40.4511881203787,-79.9453397781889,10.3800001144409,0.058425903320313,-1.04362487792969,-0.070571899414063,0.015058045435526,0.020112725184496,0.000102265385859
1492639016.1,40.4511881203787,-79.9453397781889,10.3800001144409,-0.015274047851563,-1.00263977050781,-0.062942504882813,-0.048011468131949,-0.005005677584913,0.003786216121766
1492639016.3,40.4512582350036,-79.94536995661,7.80000019073486,0.02227783203125,-1.02168273925781,-0.120223999023438,-0.046203714384003,0.035398737209333,-0.02828596656995
1492639016.5,40.4512582350036,-79.94536995661,7.80000019073486,0.053024291992188,-1.05442810058594,-0.131973266601562,-0.015980298121021,0.008614527178079,0.005145227226033
1492639016.7,40.4512582350036,-79.94536995661,7.80000019073486,0.025039672851563,-1.04426574707031,-0.17431640625,-0.018438662123273,-0.013705692233984,0.016906012915932
1492639016.9,40.4512582350036,-79.94536995661,7.80000019073486,0.035995483398438,-1.01951599121094,-0.144134521484375,-0.03193662779223,-0.014685735515133,-0.008818791633688
1492639017.1,40.4512582350036,-79.94536995661,7.80000019073486,0.026214599609375,-1.05097961425781,-0.138137817382812,0.009541307237427,0.004193679768548,0.005417934921657
1492639017.3,40.4513059637219,-79.94539049979,5.01000022888184,0.015396118164063,-1.01126098632812,-0.089080810546875,-0.027889421883637,-0.025347700939265,0.000846086278318
1492639017.5,40.4513059637219,-79.94539049979,5.01000022888184,0.044876098632813,-0.995834350585938,-0.073486328125,0.007290669800201,-0.013875069279313,0.004375307354891
1492639017.7,40.4513059637219,-79.94539049979,5.01000022888184,0.104766845703125,-0.993896484375,0.067306518554688,-0.040742902568795,0.043872116849638,-0.033582993978117
1492639017.9,40.4513059637219,-79.94539049979,5.01000022888184,0.069107055664063,-0.953445434570312,0.145187377929688,-0.012598349852729,0.004335093622431,-0.010802314013579
1492639018.1,40.4513059637219,-79.94539049979,5.01000022888184,0.07464599609375,-0.962753295898438,0.1578369140625,-0.003439206231728,-0.016995761444668,0.008538360770903
1492639018.3,40.4513207435429,-79.945396861254,1.1599999666214,0.068618774414063,-0.963150024414062,0.249954223632812,-0.008616391390842,-0.005261873681779,0.004190217659131
1492639018.5,40.4513207435429,-79.945396861254,1.1599999666214,0.061294555664063,-0.946502685546875,0.264022827148438,-0.01169074455323,-0.000988032764419,-0.00224957217279
1492639018.7,40.4513207435429,-79.945396861254,1.1599999666214,0.081512451171875,-0.923080444335938,0.404937744140625,0.023420104942266,-0.006535130998945,-0.002941994056211
1492639018.9,40.4513207435429,-79.945396861254,1.1599999666214,0.098526000976563,-0.903717041015625,0.4544677734375,-0.014894261028486,-0.004158526042159,-0.003340402955286
1492639019.1,40.4513207435429,-79.945396861254,1.1599999666214,0.053359985351563,-0.923919677734375,0.473037719726562,-0.011923771148612,-0.010558102141619,0.009501093504967
1492639019.3,40.4513248306478,-79.9453986204073,0.550000011920929,0.026885986328125,-0.875473022460938,0.618545532226562,0.023739684273075,0.024309600746352,-0.009415606033975
1492639019.5,40.4513248306478,-79.9453986204073,0.550000011920929,0.041900634765625,-0.84332275390625,0.59625244140625,0.053509031570199,-0.049274072804755,0.031595210540482
1492639019.7,40.4513248306478,-79.9453986204073,0.550000011920929,0.073165893554688,-0.85748291015625,0.550048828125,-0.036752155675312,-0.03805177828727,0.018913770061743
1492639019.9,40.4513248306478,-79.9453986204073,0.550000011920929,0.135467529296875,-0.966323852539062,0.527755737304688,-0.077201311575871,-0.009065932982848,0.033351831595498
1492639020.1,40.4513248306478,-79.9453986204073,0.550000011920929,0.094558715820313,-0.82440185546875,0.53704833984375,-0.022452045886022,-0.003056776299193,-0.072724537783448
1492639020.3,40.4513441712078,-79.945406944884,3.28999996185303,0.109329223632812,-0.765274047851562,0.490631103515625,-0.054096258590562,0.012051336564827,-0.009114668830796
1492639020.5,40.4513441712078,-79.945406944884,3.28999996185303,0.227142333984375,-0.816497802734375,0.537185668945312,0.045785065460642,-0.076867351175175,0.11368581956163
1492639020.7,40.4513441712078,-79.945406944884,3.28999996185303,0.082504272460938,-0.855758666992188,0.613006591796875,0.050910851610718,-0.060953632081407,0.059320315384861
1492639020.9,40.4513441712078,-79.945406944884,3.28999996185303,0.122482299804688,-0.916091918945312,0.524856567382812,-0.046332078748545,0.024775387621007,0.052772401212683
1492639021.1,40.4513806681984,-79.9454226537544,5.23999977111816,0.112380981445312,-0.906051635742188,0.566253662109375,0.015656724048576,0.024369521870879,0.036348686770165
1492639021.3,40.4513806681984,-79.9454226537544,5.23999977111816,0.079742431640625,-0.8988037109375,0.507247924804688,-0.043347740431002,0.044958420258282,0.001572596623692
1492639021.5,40.4513806681984,-79.9454226537544,5.23999977111816,0.101119995117188,-0.914306640625,0.55712890625,-0.012189554625402,0.037305826865939,-0.022611569235318
1492639021.7,40.4513806681984,-79.9454226537544,5.23999977111816,0.052352905273438,-0.72613525390625,0.5242919921875,-0.009040366636383,-0.125452464205927,0.047144609197128
1492639021.9,40.4513806681984,-79.9454226537544,5.23999977111816,0.001144409179688,-0.736923217773438,0.457626342773438,-0.300315088748311,-0.008696818855763,-0.081952124644463
1492639022.1,40.4513806681984,-79.9454226537544,5.23999977111816,0.085708618164063,-0.957855224609375,0.40435791015625,0.022139390774047,0.11366158479571,-0.076834061661549
1492639022.3,40.4513740999004,-79.9454198266571,9.11999988555908,0.017730712890625,-0.926849365234375,0.562576293945312,-0.12694676389357,-0.084276531643885,-0.029870014786329
1492639022.5,40.4513740999004,-79.9454198266571,9.11999988555908,-0.003570556640625,-0.889175415039062,0.482681274414062,0.006598780548998,-0.014938735818691,-0.023350596437815
1492639022.7,40.4513740999004,-79.9454198266571,9.11999988555908,-0.024948120117188,-0.945632934570312,0.474639892578125,0.09788501849808,-0.180395075390915,0.063308132801146
1492639022.9,40.4513740999004,-79.9454198266571,9.11999988555908,0.036453247070313,-0.914749145507812,0.396148681640625,-0.072160480264569,-0.090996486022482,0.086925577980186
1492639023.1,40.4513740999004,-79.9454198266571,9.11999988555908,0.090560913085938,-0.920318603515625,0.387924194335938,-0.025988191181429,-0.090237485111809,0.059674782125951
1492639023.3,40.4515598467726,-79.9455006347358,11.8000001907349,0.111648559570312,-0.977493286132812,0.384185791015625,0.037608628281881,-0.076830599552132,0.011245464018969
1492639023.5,40.4515598467726,-79.9455006347358,11.8000001907349,0.058334350585938,-0.841476440429688,0.381378173828125,-0.036232040314419,-0.100813696748841,0.02441213244832
1492639023.7,40.4515598467726,-79.9455006347358,11.8000001907349,0.085159301757813,-0.955734252929688,0.383468627929688,0.076158151376887,-0.08239048095989,0.070296267501514
1492639023.9,40.4515598467726,-79.9455006347358,11.8000001907349,0.071487426757813,-0.953842163085938,0.392715454101562,-0.027750138558626,-0.052996905692577,0.053163353260707
1492639024.1,40.4516711278124,-79.9455490664588,13.789999961853,0.118667602539062,-0.974960327148438,0.345230102539062,-0.060659086464844,0.014223677066004,0.004673315080871
1492639024.3,40.4516711278124,-79.9455490664588,13.789999961853,0.096954345703125,-0.866729736328125,0.283294677734375,-0.100793989356774,0.018736137217035,-0.017073525748498
1492639024.5,40.4516711278124,-79.9455490664588,13.789999961853,0.0614013671875,-0.967422485351562,0.27056884765625,-0.009171127845906,0.037288250002745,-0.009786051741605
1492639024.7,40.4516711278124,-79.9455490664588,13.789999961853,0.031570434570313,-0.953338623046875,0.216064453125,-0.062445534924069,-0.003841077240221,0.047350205233282
1492639024.9,40.4516711278124,-79.9455490664588,13.789999961853,-0.02130126953125,-0.876480102539062,0.23443603515625,-0.019566510844921,-0.072194835042631,0.067157465840746
1492639025.1,40.4516711278124,-79.9455490664588,13.789999961853,0.069488525390625,-0.969696044921875,0.202468872070312,-0.036023248484957,0.054474161149244,-0.061283597740467
1492639025.3,40.4517936164392,-79.9456023759468,14.4399995803833,-0.0379638671875,-0.9625244140625,0.19671630859375,-0.012769324794712,-0.086073366431361,0.029945382245178
1492639025.5,40.4517936164392,-79.9456023759468,14.4399995803833,0.0191650390625,-0.95361328125,0.193084716796875,-0.034091391430213,-0.019990486090462,-0.009893377133535
1492639025.7,40.4517936164392,-79.9456023759468,14.4399995803833,0.121368408203125,-0.936965942382812,0.179962158203125,0.031862059281708,-0.010844391958803,0.000354200424981
1492639025.9,40.4517936164392,-79.9456023759468,14.4399995803833,0.023391723632813,-0.9354248046875,0.124435424804688,0.009603891523044,-0.036232306630528,-0.021132449565888
1492639026.1,40.4517936164392,-79.9456023759468,14.4399995803833,0.091995239257813,-0.973251342773438,0.118988037109375,-0.045138183631862,-0.037998781381578,0.00923184791876
1492639026.3,40.4519139435367,-79.9456547446942,14.1400003433228,0.03875732421875,-1.01492309570312,0.068267822265625,-0.01723944068441,-0.00945981450807,0.00944383554153
1492639026.5,40.4519139435367,-79.9456547446942,14.1400003433228,0.002853393554688,-0.9669189453125,0.100692749023438,-0.035676771227138,-0.032739837176998,0.021043499985479
1492639026.7,40.4519139435367,-79.9456547446942,14.1400003433228,0.092819213867188,-0.970611572265625,0.071929931640625,-0.017258881760368,0.034144388335906,-0.04291337885721
1492639026.9,40.4519139435367,-79.9456547446942,14.1400003433228,0.139450073242188,-0.973388671875,0.05621337890625,-0.049491653065815,-0.025203623924292,0.023015038140465
1492639027.1,40.4519139435367,-79.9456547446942,14.1400003433228,0.0662841796875,-1.033935546875,0.02587890625,0.03286021205827,-0.011913917452579,0.004632036083975
1492639027.3,40.4520288851281,-79.9457047695621,13,0.122146606445312,-1.01211547851562,0.022796630859375,0.035493013111922,0.055083226090545,0.004486094856238
1492639027.5,40.4520288851281,-79.9457047695621,13,0.088241577148438,-1.03056335449219,0.011138916015625,0.003588343252773,0.044652156732923,-0.00434334942181
1492639027.7,40.4520288851281,-79.9457047695621,13,0.03662109375,-0.935455322265625,0.072418212890625,-0.071355672983147,0.017485250453024,0.009886452914701
1492639027.9,40.4520288851281,-79.9457047695621,13,0.010879516601563,-0.964797973632812,0.095596313476563,-0.008973254976913,-0.01376587967462,0.025532790635026
1492639028.1,40.4520288851281,-79.9457047695621,13,-0.040283203125,-1.00265502929688,0.053054809570313,-0.018860240523832,0.007565774340806,-0.018338260950177
1492639028.3,40.4521320847115,-79.9457496840745,11.3199996948242,-0.099014282226563,-0.978530883789062,0.121871948242188,-0.065817096864109,0.107858290464318,-0.034004838694786
1492639028.5,40.4521320847115,-79.9457496840745,11.3199996948242,0.07489013671875,-0.94915771484375,0.051422119140625,0.005637912027698,0.045703572731286,0.002072205644191
1492639028.7,40.4521320847115,-79.9457496840745,11.3199996948242,0.052658081054688,-1.02015686035156,0.070724487304688,-0.02302169604319,-0.103019859395862,0.069334067399668
1492639028.9,40.4521320847115,-79.9457496840745,11.3199996948242,-0.040969848632813,-0.979385375976562,0.147247314453125,-0.01131497252342,-0.123308353212304,0.058844142181955
1492639029.1,40.4521320847115,-79.9457496840745,11.3199996948242,-0.142349243164062,-0.97393798828125,0.224868774414062,-0.044302217365686,-0.201803694761844,0.091761612203661
1492639029.3,40.4522237828661,-79.9457895929362,10.1199998855591,-0.06280517578125,-1.01776123046875,0.08551025390625,-0.030255906828281,-0.076392509552814,-0.009708553753884
1492639029.5,40.4522237828661,-79.9457895929362,10.1199998855591,0.018081665039063,-0.9703369140625,0.032058715820313,-0.040269925159197,-0.06355660573085,0.028539499505725
1492639029.7,40.4522237828661,-79.9457895929362,10.1199998855591,-0.017379760742188,-1.03036499023438,0.069595336914063,-0.030636738864163,-0.088087515163788,0.011642008705281
1492639029.9,40.4522237828661,-79.9457895929362,10.1199998855591,-0.020217895507813,-1.01397705078125,0.055953979492188,0.057899785259413,-0.072708026184689,0.009310144854808
1492639030.1,40.4522237828661,-79.9457895929362,10.1199998855591,0.1319580078125,-0.770645141601562,0.046356201171875,0.20132698892672,0.141190680983859,-0.237135053995599
1492639030.3,40.4523027758946,-79.9458239722742,8.89000034332275,0.132293701171875,-1.03150939941406,-0.026580810546875,0.097801661555961,-0.110194415372536,0.030073480293611
1492639030.5,40.4523027758946,-79.9458239722742,8.89000034332275,-0.20989990234375,-0.983001708984375,-0.1219482421875,0.011723235118529,-0.257469087866681,0.169246284119517
1492639030.7,40.4523027758946,-79.9458239722742,8.89000034332275,-0.076614379882813,-1.05036926269531,0.08526611328125,0.008784703171735,-0.002200303692623,-0.097996072315537
1492639030.9,40.4523027758946,-79.9458239722742,8.89000034332275,0.073760986328125,-0.960922241210938,0.156646728515625,-0.004145742868926,-0.041463021327553,-0.030855650705767
1492639031.1,40.4523027758946,-79.9458239722742,8.89000034332275,0.083602905273438,-0.979095458984375,0.177017211914062,-0.009418801827283,-0.019089272377579,-0.022437664816136
1492639031.3,40.4523689274525,-79.9458527627486,6.96000003814697,0.149032592773438,-0.956329345703125,0.193710327148438,-0.02084456185205,0.00544936022252,-0.030081469776881
1492639031.5,40.4523689274525,-79.9458527627486,6.96000003814697,0.169219970703125,-0.951400756835938,0.262176513671875,-0.002100168835636,0.023417175465067,0.010580206378667
1492639031.7,40.4523689274525,-79.9458527627486,6.96000003814697,0.146881103515625,-0.982009887695312,0.222824096679688,-0.007459247897203,0.111736385643692,-0.016357934363594
1492639031.9,40.4523689274525,-79.9458527627486,6.96000003814697,0.11138916015625,-0.960708618164062,0.278961181640625,0.017694308598596,-0.005429386514345,0.026850522742397
1492639032.1,40.4523689274525,-79.9458527627486,6.96000003814697,0.206924438476562,-0.894073486328125,0.356399536132812,-0.051986236058892,0.090747480460559,-0.042348788706113
1492639032.3,40.4524248231262,-79.9458770896582,6.65000009536743,0.12469482421875,-0.904815673828125,0.343780517578125,0.011642807653608,0.041413752847386,0.027733893275976
1492639032.5,40.4524248231262,-79.9458770896582,6.65000009536743,0.120437622070312,-0.909912109375,0.330474853515625,-0.09594437301174,0.033603500318511,0.025586320172936
1492639032.7,40.4524248231262,-79.9458770896582,6.65000009536743,0.12933349609375,-0.899566650390625,0.365753173828125,-0.010133327947752,0.07239909949824,0.001841842209899
1492639032.9,40.4524248231262,-79.9458770896582,6.65000009536743,0.071502685546875,-0.901443481445312,0.225250244140625,-0.024961542581204,0.040592700283315,0.056149023158795
1492639033.1,40.4524248231262,-79.9458770896582,6.65000009536743,-0.058059692382813,-0.952606201171875,0.233108520507812,-0.033739587850214,-0.098694086837247,0.076676668841125
1492639033.3,40.4524865714032,-79.9459039637371,8.10999965667725,-0.035781860351563,-1.00985717773438,0.058364868164063,-0.085762575532149,-0.003703125495755,-0.03818600160621
1492639033.5,40.4524865714032,-79.9459039637371,8.10999965667725,-0.121185302734375,-1.02548217773438,0.075103759765625,-0.027068369319565,-0.063647419524022,-0.002245311115046
1492639033.7,40.4524865714032,-79.9459039637371,8.10999965667725,-0.043411254882813,-1.00151062011719,0.03302001953125,-0.029124329681107,-0.1891398311463,0.079089759104846
1492639033.9,40.4524865714032,-79.9459039637371,8.10999965667725,0.02362060546875,-1.00010681152344,0.1029052734375,-0.01750788732229,-0.012658803609474,-0.050258643459757
1492639034.1,40.4524865714032,-79.9459039637371,8.10999965667725,-0.02716064453125,-0.97955322265625,0.033767700195313,-0.024493358861568,-0.105145594577963,0.020278640120408
1492639034.3,40.4524810264469,-79.9459015504618,7.21000003814697,0.043365478515625,-1.00674438476562,0.050949096679688,-0.017973940513054,-0.008395082704257,-0.014023141035921
1492639034.5,40.4524810264469,-79.9459015504618,7.21000003814697,0.067153930664063,-1.00497436523438,0.033035278320313,-0.049429867728525,0.031164843708325,-0.028308070806997
1492639034.7,40.4524810264469,-79.9459015504618,7.21000003814697,0.025115966796875,-0.979904174804688,0.10675048828125,0.003283411307959,-0.009596700988101,-0.011669971896727
1492639034.9,40.4524810264469,-79.9459015504618,7.21000003814697,0.091720581054688,-0.984237670898438,0.103530883789062,-0.030509706080166,0.002321743838331,-0.0259074974004
1492639035.1,40.4524810264469,-79.9459015504618,7.21000003814697,0.07830810546875,-0.981735229492188,0.167465209960938,-0.007714112413524,-0.030797327477894,0.002132925717044
1492639035.3,40.4524810264469,-79.9459015504618,5.8600001335144,0.09490966796875,-0.952163696289062,0.186569213867188,-0.030012227588539,-0.026397785357083,-0.000239151865889
1492639035.5,40.4524810264469,-79.9459015504618,5.8600001335144,0.103607177734375,-0.948501586914062,0.20458984375,-0.003031742584946,0.013847372403976,-0.004331631513014
1492639035.7,40.4524810264469,-79.9459015504618,5.8600001335144,0.016952514648438,-0.99566650390625,0.217544555664062,-0.049945189399455,0.015217036152604,0.000515587987039
1492639035.9,40.4524810264469,-79.9459015504618,5.8600001335144,0.103790283203125,-0.93182373046875,0.199249267578125,-0.001339037396092,-0.028711007079926,0.004325239926398
1492639036.1,40.4524810264469,-79.9459015504618,5.8600001335144,0.088760375976563,-0.936737060546875,0.211380004882812,0.002184058409974,-0.006397711886697,-0.007424626803032
1492639036.3,40.4526508653087,-79.945979706984,5.59000015258789,0.112533569335938,-0.942733764648438,0.313674926757812,-0.010104033175761,0.037292777376598,-0.019391541161303
1492639036.5,40.4526508653087,-79.945979706984,5.59000015258789,0.025772094726563,-0.94580078125,0.281234741210938,-0.047510793847014,0.046048185776342,-0.004870122685428
1492639036.7,40.4526508653087,-79.945979706984,5.59000015258789,0.022048950195313,-0.950637817382812,0.310211181640625,0.02937573208801,-0.031036479343783,0.015307849945776
1492639036.9,40.4526508653087,-79.945979706984,5.59000015258789,0.009140014648438,-0.919509887695312,0.3564453125,-0.010633203284359,-0.0637472880649,0.041637991011171
1492639037.1,40.4527066323552,-79.9460054230079,6.44999980926514,0.034149169921875,-0.906967163085938,0.402175903320312,-0.006110623121187,-0.028673989140774,0.041593782537076
1492639037.3,40.4527066323552,-79.9460054230079,6.44999980926514,0.093048095703125,-0.957977294921875,0.264007568359375,-0.046613841191875,0.000300404570961,-0.01753744841039
1492639037.5,40.4527066323552,-79.9460054230079,6.44999980926514,0.037261962890625,-1.01860046386719,0.17572021484375,-0.029688653516094,0.022531674402615,0.002836532877043
1492639037.7,40.4527066323552,-79.9460054230079,6.44999980926514,0.038604736328125,-0.916046142578125,0.224319458007812,-0.029844981072082,-0.044473192307669,0.055252336819765
1492639037.9,40.4527066323552,-79.9460054230079,6.44999980926514,0.081329345703125,-0.980224609375,0.282958984375,-0.005860285978719,-0.049954776779379,0.011797270996833
1492639038.1,40.4527066323552,-79.9460054230079,6.44999980926514,0.099044799804688,-0.994735717773438,0.415817260742188,0.053229399655741,-0.074800471853165,0.038055506712796
1492639038.3,40.4527652227902,-79.9460324409894,7.30999994277954,0.081802368164063,-0.955398559570312,0.381973266601562,0.052672532671805,0.039012646808571,-0.014488395278358
1492639038.5,40.4527652227902,-79.9460324409894,7.30999994277954,0.139846801757812,-0.931289672851562,0.36480712890625,0.02150768896348,0.059431102886208,0.017126256338082
1492639038.7,40.4527652227902,-79.9460324409894,7.30999994277954,0.207962036132812,-0.891494750976562,0.455108642578125,0.007129548554251,-0.002170209972306,0.022469090116999
1492639038.9,40.4527652227902,-79.9460324409894,7.30999994277954,0.09088134765625,-0.934539794921875,0.414535522460938,-0.025605494932785,0.034209103150395,0.022040054865387
1492639039.1,40.4527652227902,-79.9460324409894,7.30999994277954,0.0711669921875,-0.888351440429688,0.4180908203125,-0.038468829313977,0.013017531408307,0.016631973639763
1492639039.3,40.4528367799553,-79.9460654383577,9.40999984741211,0.038742065429688,-0.906143188476562,0.364364624023438,-0.011491540103692,-0.038212633217111,0.040497092800181
1492639039.5,40.4528367799553,-79.9460654383577,9.40999984741211,-0.029052734375,-0.898300170898438,0.332626342773438,-0.072275262507551,0.027063841945712,0.004521248582628
1492639039.7,40.4528367799553,-79.9460654383577,9.40999984741211,-0.01129150390625,-1.05458068847656,0.364501953125,0.128977157908647,-0.101890146461451,0.013311810708761
1492639039.9,40.4528367799553,-79.9460654383577,9.40999984741211,-0.116043090820312,-0.917755126953125,0.37420654296875,-0.037191577255175,-0.073149578293425,0.03179441499002
1492639040.1,40.4528367799553,-79.9460654383577,9.40999984741211,-0.102081298828125,-0.964691162109375,0.33172607421875,0.074748540211908,-0.141950747158968,0.062972041871578
1492639040.3,40.4529271132491,-79.946107094018,11.0299997329712,0.0059814453125,-0.956710815429688,0.241592407226562,-0.001424791183192,-0.099972404160485,0.049289252822969
1492639040.5,40.4529271132491,-79.946107094018,11.0299997329712,-0.031753540039063,-0.929428100585938,0.242233276367188,-0.00289911716266,-0.07124754864289,0.017213608021836
1492639040.7,40.4529271132491,-79.946107094018,11.0299997329712,0.052230834960938,-0.984298706054688,0.227828979492188,-0.064483119474089,-0.079359537323271,-0.000455400546404
1492639040.9,40.4529271132491,-79.946107094018,11.0299997329712,0.085479736328125,-0.95892333984375,0.17193603515625,-0.035610458515995,0.082125762747537,-0.076277727309832
1492639041.1,40.4529271132491,-79.946107094018,11.0299997329712,-0.014663696289063,-0.974563598632812,0.187530517578125,0.023836889652863,-0.019308450535293,-0.040222254575685
1492639041.3,40.453024664848,-79.9461520782768,11.7299995422363,-0.018356323242188,-1.02751159667969,0.20819091796875,0.036346023609074,0.009336243833491,-0.004983040715647
1492639041.5,40.453024664848,-79.9461520782768,11.7299995422363,0.0887451171875,-0.984130859375,0.171600341796875,0.01645034605342,0.040312269420529,-0.012730176326688
1492639041.7,40.453024664848,-79.9461520782768,11.7299995422363,0.01641845703125,-0.942779541015625,0.162078857421875,-0.066079418231482,0.051481034400104,-0.045590388384958
1492639041.9,40.453024664848,-79.9461520782768,11.7299995422363,0.017181396484375,-0.960235595703125,0.159912109375,-0.019791015324815,-0.063692693262553,0.010623882220544
1492639042.1,40.453024664848,-79.9461520782768,11.7299995422363,0.113113403320312,-0.938095092773438,0.096176147460938,-0.033995517630971,-0.00722648761793,-0.009925335066616
1492639042.3,40.4531243313937,-79.9461980378073,11.5699996948242,0.015426635742188,-0.971176147460938,0.025436401367188,-0.003788080334529,-0.036138030727939,0.023511185051547
1492639042.5,40.4531243313937,-79.9461980378073,11.5699996948242,0.058670043945313,-0.9468994140625,0.063247680664063,-0.023691747373454,-0.017927601510086,0.009399627067435
1492639042.7,40.4531243313937,-79.9461980378073,11.5699996948242,0.009658813476563,-0.999496459960938,0.02545166015625,-0.043540819610033,0.029004753748162,0.006942860961837
1492639042.9,40.4531243313937,-79.9461980378073,11.5699996948242,0.080093383789063,-1.02302551269531,0.049331665039063,-0.027757595409678,-0.025350097784246,-0.00874848418091
1492639043.1,40.4532179548745,-79.9462412106814,10.6999998092651,0.012069702148438,-0.983428955078125,0.101119995117188,-0.022710905143978,-0.03495398930729,0.006254966452269
1492639043.3,40.4532179548745,-79.9462412106814,10.6999998092651,0.016632080078125,-0.99981689453125,0.043045043945313,-0.060238307012611,0.031237015373866,-0.016690563183745
1492639043.5,40.4532179548745,-79.9462412106814,10.6999998092651,0.0726318359375,-0.969863891601562,0.027542114257813,-0.017501229419565,0.044786912684081,-0.019486616012219
1492639043.7,40.4532179548745,-79.9462412106814,10.6999998092651,0.047637939453125,-1.01658630371094,0.030899047851563,0.003364637721206,0.014869493630348,-0.004268780911288
1492639043.9,40.4532179548745,-79.9462412106814,10.6999998092651,0.07598876953125,-0.975479125976562,0.034805297851563,0.023433420747716,-0.032066856369535,-0.017802965571071
1492639044.1,40.4533042208276,-79.9462809907568,9.52000045776367,0.047607421875,-0.962127685546875,0.001190185546875,-0.019022693350327,0.005441104423141,-0.007672300784409
1492639044.3,40.4533042208276,-79.9462809907568,9.52000045776367,0.003692626953125,-0.96429443359375,0.09039306640625,0.018700450858427,-0.017137175298551,0.02475860970614
1492639044.5,40.4533042208276,-79.9462809907568,9.52000045776367,0.034255981445313,-1.04144287109375,0.007232666015625,-0.067160661634054,-0.002753708567142,0.003584348511138
1492639044.7,40.4533042208276,-79.9462809907568,9.52000045776367,-0.015960693359375,-1.01556396484375,0.048187255859375,-0.017190172204244,-0.024354075536557,-0.002245577431155
1492639044.9,40.4533042208276,-79.9462809907568,9.52000045776367,0.044586181640625,-1.00814819335938,0.029541015625,-0.040497891748508,0.037484791291192,-0.054888282698751
1492639045.1,40.4533042208276,-79.9462809907568,9.52000045776367,0.037750244140625,-0.996200561523438,-0.01800537109375,-0.036661075566031,0.041720016372745,-0.021807294586114
1492639045.3,40.4533776144297,-79.9463148349668,8.05000019073486,-0.006271362304688,-1.01258850097656,-0.027557373046875,-0.021237378112837,-0.013692110112424,-0.011910455343161
1492639045.5,40.4533776144297,-79.9463148349668,8.05000019073486,0.001541137695313,-1.00741577148438,-0.045944213867188,0.018878882651463,-0.024587102131939,0.007720237684031
1492639045.7,40.4533776144297,-79.9463148349668,8.05000019073486,0.0311279296875,-1.01423645019531,-0.015731811523438,-0.021427794130778,-0.025390577832816,-0.004418716880659
1492639045.9,40.4533776144297,-79.9463148349668,8.05000019073486,0.051254272460938,-0.996002197265625,-0.031356811523438,-0.007390538341079,-0.005271727377812,-0.007525560608346
1492639046.1,40.4533776144297,-79.9463148349668,8.05000019073486,0.05364990234375,-1.01840209960938,-0.032333374023438,-0.007608917550465,-0.014842063071121,0.003159041685052
1492639046.3,40.4534362505578,-79.9463418740188,6.15000009536743,0.058349609375,-1.02529907226562,-0.05902099609375,-0.041977277734047,-0.032699889760647,0.014581605916511
1492639046.5,40.4534362505578,-79.9463418740188,6.15000009536743,0.0634765625,-0.988418579101562,-0.033828735351563,-0.027986627263425,-0.040239298806661,-0.000182692850779
1492639046.7,40.4534362505578,-79.9463418740188,6.15000009536743,0.030807495117188,-1.02508544921875,-0.033096313476563,-0.005661880477508,-0.002086853030186,0.023404125975725
1492639046.9,40.4534362505578,-79.9463418740188,6.15000009536743,0.014053344726563,-1.01533508300781,-0.009185791015625,-0.03679290203999,0.01831855355811,-0.024946895195208
1492639047.1,40.4534362505578,-79.9463418740188,6.15000009536743,-0.000396728515625,-1.01765441894531,-0.012802124023438,-0.013407418191895,0.014975487441734,-0.023632625197254
1492639047.3,40.4534732498084,-79.9463589355933,3.76999998092651,0.061492919921875,-1.00238037109375,-0.021469116210938,-0.026181536676569,0.031015706687281,-0.015275093064368
1492639047.5,40.4534732498084,-79.9463589355933,3.76999998092651,0.058120727539063,-0.993911743164062,-0.010787963867188,-0.025312547212876,0.022501846998407,-0.005648298355949
1492639047.7,40.4534732498084,-79.9463589355933,3.76999998092651,0.052825927734375,-1.01313781738281,-0.011138916015625,-0.022347383655182,0.019293803149297,0.009317335389751
1492639048,40.4534732498084,-79.9463589355933,3.76999998092651,0.015213012695313,-1.00550842285156,0.001663208007813,-0.024693894891651,-0.011538944371095,0.008306665756066
1492639048.1,40.4534732498084,-79.9463589355933,3.76999998092651,0.006790161132813,-1.00984191894531,-0.006515502929688,-0.017670340148785,0.032024245792094,-0.014124341157344
1492639048.3,40.4534954080606,-79.946369153494,1.9099999666214,0.021942138671875,-0.996414184570312,0.017623901367188,-0.019328956875686,-0.004127633373514,0.009408681815141
1492639048.5,40.4534954080606,-79.946369153494,1.9099999666214,0.042282104492188,-1.00071716308594,0.08575439453125,-0.004513259099357,-0.020180103160075,0.007469367909345
1492639048.7,40.4534954080606,-79.946369153494,1.9099999666214,0.037811279296875,-0.984573364257812,0.112991333007812,-0.012723518423963,0.003273557611925,-0.00227114377762
1492639048.9,40.4534954080606,-79.946369153494,1.9099999666214,0.045120239257813,-0.98101806640625,0.114151000976562,-0.021137509571959,0.0054546865447,-0.008760202089707
1492639049.2,40.4535040713969,-79.9463731484441,0.610000014305115,0.045822143554688,-0.986770629882812,0.0743408203125,-0.021286646593003,0.001202150916062,-0.000221042370477
1492639049.3,40.4535040713969,-79.9463731484441,0.610000014305115,0.029647827148438,-0.996673583984375,0.1072998046875,-0.000123836990689,-0.01063586644545,0.003224821763977
1492639049.5,40.4535040713969,-79.9463731484441,0.610000014305115,0.034698486328125,-0.994949340820312,0.10284423828125,-0.011729360389036,-0.004178766066443,-0.001175519305161
1492639049.7,40.4535040713969,-79.9463731484441,0.610000014305115,0.026275634765625,-0.977340698242188,0.108306884765625,-0.017154219529527,-0.013716611194453,0.000925981111021
1492639050,40.4535040713969,-79.9463731484441,0.610000014305115,0.040863037109375,-0.964080810546875,0.213119506835938,-0.01170672351977,-0.003115365843175,-0.00224424585061
1492639050.1,40.4535040713969,-79.9463731484441,0.610000014305115,0.041595458984375,-0.955032348632812,0.21246337890625,-0.007517038492858,-0.008460862783182,-5.51274345646402E-05
1492639050.3,40.4535040624832,-79.9463731443336,0,0.04736328125,-0.9698486328125,0.2122802734375,-0.021220067565751,0.002264752191003,-0.004487959069002
1492639050.5,40.4535040624832,-79.9463731443336,0,0.040069580078125,-0.970291137695312,0.184219360351562,-0.017151556368437,-0.009461412404725,0.003047455235378
1492639050.7,40.4535040624832,-79.9463731443336,0,0.0361328125,-0.975006103515625,0.129013061523438,-0.016018913956827,-0.006278135953753,-0.000147805440499
1492639050.9,40.4535040624832,-79.9463731443336,0,0.042922973632813,-0.981185913085938,0.128585815429688,-0.019138540857745,-0.004131095482931,-0.004450142181522
1492639051.1,40.4535040624832,-79.9463731443336,0,0.042633056640625,-0.975143432617188,0.12847900390625,-0.021234714951747,0.002265018507112,-0.003421895684643
1492639051.3,40.4535079597826,-79.9463749415069,0.150000005960464,0.045974731445313,-0.975189208984375,0.128890991210938,-0.02117479382722,0.004391552637541,-0.006625412159899
1492639051.5,40.4535079597826,-79.9463749415069,0.150000005960464,0.054702758789063,-0.95404052734375,0.190322875976562,-0.015978966540475,-0.000959803256865,-0.00016112124595
1492639051.7,40.4535079597826,-79.9463749415069,0.150000005960464,0.048355102539063,-0.978790283203125,0.167861938476562,-0.012838034350836,-0.004171042899282,0.002011751887446
1492639051.9,40.4535079597826,-79.9463749415069,0.150000005960464,0.04461669921875,-0.970870971679688,0.159820556640625,-0.014968829539008,-0.006284793856478,0.000929176904329
1492639052.1,40.4535079597826,-79.9463749415069,0.150000005960464,0.04644775390625,-0.958419799804688,0.177078247070312,-0.013896108251925,-0.005228051535935,0.000937432703708
1492639052.3,40.4535083230886,-79.9463751090393,0,0.043624877929688,-0.973159790039062,0.161834716796875,-0.015996277087561,-0.005214735730484,-0.001216531985948
1492639052.5,40.4535083230886,-79.9463751090393,0,0.048309326171875,-0.967514038085938,0.16961669921875,-0.014992797988819,-0.009475793474611,0.000937166387599
1492639052.7,40.4535083230886,-79.9463751090393,0,0.04193115234375,-0.96533203125,0.170913696289062,-0.017045029924834,-0.003080478432895,-0.001232777268598
1492639052.9,40.4535083230886,-79.9463751090393,0,0.04296875,-0.973358154296875,0.163711547851562,-0.012877981767187,-0.00948937559617,0.002025067692896
1492639053.1,40.4535083230886,-79.9463751090393,0,0.045394897460938,-0.967178344726562,0.16845703125,-0.014930213703202,-0.003094060554454,-0.0001448759633
1492639053.3,40.4535083678856,-79.9463751296966,0,0.046615600585938,-0.969985961914062,0.16815185546875,-0.013889450349199,-0.006291984391421,-0.000125967519561
1492639053.5,40.4535083678856,-79.9463751296966,0,0.0457763671875,-0.969970703125,0.166748046875,-0.015996277087561,-0.005214735730484,-0.001216531985948
1492639053.7,40.4535083678856,-79.9463751296966,0,0.045059204101563,-0.971649169921875,0.166763305664062,-0.014894261028486,-0.004158526042159,-0.003340402955286
1492639053.9,40.4535083678856,-79.9463751296966,0,0.050018310546875,-0.9732666015625,0.171524047851562,-0.012847355414651,-0.007362308833524,0.000953677986357
1492639054.1,40.4535083678856,-79.9463751296966,0,0.041900634765625,-0.967071533203125,0.173171997070312,-0.017090303663366,-0.005207278879432,0.0009046758223
1492639054.3,40.4535084125641,-79.9463751502993,0,0.04876708984375,-0.971054077148438,0.165481567382812,-0.015957661251755,-0.00202400242846,-0.002290584853577
1492639054.5,40.4535084125641,-79.9463751502993,0,0.038650512695313,-0.969940185546875,0.169967651367188,-0.019145198760471,-0.003067162627444,-0.003386741958254
1492639054.7,40.4535084125641,-79.9463751502993,0,0.054046630859375,-0.96722412109375,0.182235717773438,-0.011729360389036,-0.004178766066443,-0.001175519305161
1492639054.9,40.4535084125641,-79.9463751502993,0,0.040313720703125,-0.961074829101562,0.245941162109375,-0.005407548593406,-0.00528291265439,0.00315691115618
1492639055.1,40.4535084125641,-79.9463751502993,0,0.053268432617188,-0.954635620117188,0.255233764648438,-0.013928066185005,-0.009482717693445,0.000948085348068
1492639055.3,40.4535084572226,-79.9463751708929,0,0.073211669921875,-0.9254150390625,0.318405151367188,-0.001959021297862,0.003202184894711,-0.010690461247796
1492639055.5,40.4535084572226,-79.9463751708929,0,0.0919189453125,-0.926483154296875,0.3441162109375,-0.010311759740787,0.021339377182587,-0.0129552134388
1492639055.7,40.4535084572226,-79.9463751708929,0,0.091949462890625,-0.922286987304688,0.361160278320312,-0.012358665354622,0.047947019633569,-0.00451512331212
1492639055.9,40.4535084572226,-79.9463751708929,0,0.075515747070313,-0.947128295898438,0.36785888671875,-0.015331818395586,0.061793326773109,-0.013111008362569
1492639056.2,40.4535213003103,-79.9463810932641,1.38999998569489,0.113113403320312,-0.90484619140625,0.339752197265625,-0.009985522507252,0.074524035732014,-0.00775805457151
1492639056.3,40.4535213003103,-79.9463810932641,1.38999998569489,0.096954345703125,-0.943588256835938,0.346710205078125,-0.022149777102298,0.117148461610951,-0.029316876227919
1492639056.5,40.4535213003103,-79.9463810932641,1.38999998569489,0.122909545898438,-0.908203125,0.33453369140625,-0.034543063551091,0.144883686467472,-0.042309906554198
1492639056.7,40.4535213003103,-79.9463810932641,1.38999998569489,0.210723876953125,-0.967849731445312,0.32806396484375,-0.005041630259629,0.202128866730943,-0.065612299776282
1492639056.9,40.4535213003103,-79.9463810932641,1.38999998569489,0.061126708984375,-1.14328002929688,0.270095825195312,-0.015936622279143,0.239436025177427,-0.027436418182214
1492639057.1,40.4535213003103,-79.9463810932641,1.38999998569489,0.1632080078125,-0.964752197265625,0.262054443359375,0.064956895832014,0.295279850075299,-0.071533305827855
1492639057.3,40.4535414123663,-79.9463903675963,3.08999991416931,0.385101318359375,-0.979949951171875,0.283050537109375,0.07420312482066,0.30053027216439,-0.121564249014411
1492639057.5,40.4535414123663,-79.9463903675963,3.08999991416931,0.295089721679688,-0.846542358398438,0.381912231445312,0.066320700626243,0.265493192231089,-0.031992554175122
1492639057.7,40.4535414123663,-79.9463903675963,3.08999991416931,0.259536743164062,-1.12908935546875,0.23089599609375,0.070186811580711,0.398449112808314,0.068994248044574
1492639057.9,40.4535414123663,-79.9463903675963,3.08999991416931,-0.055068969726563,-1.02607727050781,0.263641357421875,-0.062339541112684,0.335463222499068,-0.085734878656812
1492639058.2,40.4535688201597,-79.9464030062335,4.30999994277954,0.183761596679688,-0.932144165039062,0.285507202148438,-0.001126517141104,0.305272296801385,-0.139407162001833
1492639058.3,40.4535688201597,-79.9464030062335,4.30999994277954,0.171310424804688,-1.13352966308594,0.297805786132812,0.125155788060492,0.334242695771485,-0.091275585304722
1492639058.5,40.4535688201597,-79.9464030062335,4.30999994277954,0.021881103515625,-0.825286865234375,0.405120849609375,-0.225092505862369,0.406719026941337,-0.137697146265893
1492639058.7,40.4535688201597,-79.9464030062335,4.30999994277954,0.143417358398438,-0.904327392578125,0.4136962890625,-0.073838804383537,0.38019074669084,-0.232039361565841
1492639058.9,40.4535688201597,-79.9464030062335,4.30999994277954,0.451873779296875,-0.90118408203125,0.150436401367188,-0.136349054122095,0.499740580656715,-0.190339318901271
1492639059.1,40.4535688201597,-79.9464030062335,4.30999994277954,0.351043701171875,-0.833831787109375,0.252914428710938,-0.069025939661546,0.563128608290563,-0.172754199907369
1492639059.3,40.4535524302712,-79.9464637512025,5.40999984741211,0.449066162109375,-0.903167724609375,0.247634887695312,-0.122703283012638,0.479441700512022,-0.186948582201382
1492639059.5,40.4535524302712,-79.9464637512025,5.40999984741211,0.25,-0.990753173828125,0.387908935546875,-0.031671909579876,0.323576735605718,0.000973119062315
1492639059.7,40.4535524302712,-79.9464637512025,5.40999984741211,0.313644409179688,-0.882095336914062,0.204940795898438,-0.013128851541873,0.43833021644836,-0.046046587879688
1492639059.9,40.4535524302712,-79.9464637512025,5.40999984741211,0.286270141601562,-0.925811767578125,0.251495361328125,-0.106395149761429,0.388932572969025,-0.105515773969484
1492639060.1,40.4535287034413,-79.9465348219007,6.38000011444092,0.2210693359375,-0.902450561523438,0.234024047851562,-0.04724873879575,0.309843879128615,-0.03540219931875
1492639060.3,40.4535287034413,-79.9465348219007,6.38000011444092,0.243377685546875,-0.961318969726562,0.15570068359375,-0.058908324364226,0.304587598085126,-0.119738918403271
1492639060.5,40.4535287034413,-79.9465348219007,6.38000011444092,0.159652709960938,-0.854400634765625,0.26434326171875,-0.103685649668382,0.386792989349255,-0.071363662466417
1492639060.8,40.4535287034413,-79.9465348219007,6.38000011444092,-0.032821655273438,-1.0194091796875,0.307571411132812,-0.005752161638462,0.264894247301931,-0.057251838166196
1492639061,40.4535287034413,-79.9465348219007,6.38000011444092,-0.083053588867188,-0.988983154296875,0.207077026367188,0.040184171372097,0.062506787629141,0.054627026595814
1492639061.1,40.4535287034413,-79.9465348219007,6.38000011444092,-0.136871337890625,-0.76312255859375,0.305160522460938,-0.045750178050362,0.006680006962246,0.000580569117637
1492639061.3,40.453504097065,-79.9466085271682,7.09999990463257,-0.099090576171875,-1.16673278808594,0.098358154296875,0.033122000793425,0.15505003761274,-0.233561890761039
1492639061.5,40.453504097065,-79.9466085271682,7.09999990463257,-0.108901977539062,-0.672622680664062,0.206146240234375,-0.06066281489037,0.138652422148904,-0.159844792839319
1492639061.7,40.453504097065,-79.9466085271682,7.09999990463257,-0.102951049804688,-0.79693603515625,0.0933837890625,0.023020098146536,-0.06502507275592,0.071839835669324
1492639061.9,40.453504097065,-79.9466085271682,7.09999990463257,-0.061294555664063,-1.04289245605469,0.610992431640625,-0.207961189518217,-0.248602093017262,0.118994564878594
1492639062.1,40.453504097065,-79.9466085271682,7.09999990463257,0.081741333007813,-0.883682250976562,0.29486083984375,0.040804155273867,-0.07472377281377,0.012338957962555
1492639062.3,40.4534766798794,-79.9466906518567,7.98000001907349,0.023605346679688,-0.928314208984375,0.317352294921875,-0.116358834347742,0.047555534953327,-0.031168039501633
1492639062.5,40.4534766798794,-79.9466906518567,7.98000001907349,0.01708984375,-1.03742980957031,0.26727294921875,0.170730730111127,-0.134078709292802,-0.020296483299712
1492639062.7,40.4534766798794,-79.9466906518567,7.98000001907349,0.111541748046875,-0.970687866210938,0.146133422851562,0.085408108791059,0.01964187830377,-0.082340946163615
1492639062.9,40.4534766798794,-79.9466906518567,7.98000001907349,0.119125366210938,-1.06449890136719,0.485519409179688,-0.195084805647683,-0.022119949698089,0.080158219334186
1492639063.1,40.4534766798794,-79.9466906518567,7.98000001907349,0.075546264648438,-0.990890502929688,0.128097534179688,-0.032396023080269,-0.011485947465403,0.026353310566879
1492639063.3,40.4534478645646,-79.9467786170378,8.40999984741211,0.092361450195313,-0.986129760742188,0.119552612304688,-0.016777914867499,-0.03711487821578,0.038307708068027
1492639063.5,40.4534478645646,-79.9467786170378,8.40999984741211,0.14727783203125,-0.81951904296875,0.218185424804688,-0.184956537706003,0.086291745640748,-0.055427040187274
1492639063.7,40.4534478645646,-79.9467786170378,8.40999984741211,0.22845458984375,-0.92138671875,0.117706298828125,-0.066922308716492,-0.01977903109991,-0.023024625520389
1492639063.9,40.4534478645646,-79.9467786170378,8.40999984741211,0.041336059570313,-0.970932006835938,0.1138916015625,-0.223777170599979,0.259926386604497,-0.080795513783042
1492639064.1,40.4534478645646,-79.9467786170378,8.40999984741211,0.237838745117188,-1.08734130859375,0.185562133789062,0.104723749861295,0.107810886196915,-0.045053228793089
1492639064.3,40.4534197925868,-79.9468669059121,7.8899998664856,-0.074081420898438,-0.912155151367188,0.07025146484375,-0.068800636233325,-0.032523055864266,0.0292335192858
1492639064.5,40.4534197925868,-79.9468669059121,7.8899998664856,-0.081985473632813,-1.03260803222656,0.056961059570313,-0.014281467661659,-0.040314399949402,0.087387370113206
1492639064.7,40.4534197925868,-79.9468669059121,7.8899998664856,-0.036392211914063,-1.02818298339844,0.0574951171875,0.034808580711772,-0.043838827336012,0.000469515300181
1492639064.9,40.4534197925868,-79.9468669059121,7.8899998664856,-0.228759765625,-1.110595703125,-0.144607543945312,0.029031385359063,-0.143806704122644,-0.098489556065528
1492639065.1,40.4534197925868,-79.9468669059121,7.8899998664856,0.232879638671875,-0.932159423828125,-0.099151611328125,0.095599227334465,-0.515404495240234,0.357358135085046
1492639065.3,40.4533953856059,-79.9469436680444,6.5,0.028274536132813,-0.956161499023438,-0.010147094726563,-0.084326865388487,-0.035618714315374,-0.005036303937449
1492639065.5,40.4533953856059,-79.9469436680444,6.5,0.371368408203125,-0.759963989257812,-0.019989013671875,-0.232756817163508,0.004700213007881,-0.031182953203738
1492639065.7,40.4533953856059,-79.9469436680444,6.5,0.104537963867188,-0.996841430664062,-0.00360107421875,0.072461417467748,-0.187665505166832,0.127039441899505
1492639065.9,40.4533953856059,-79.9469436680444,6.5,-0.001068115234375,-1.00830078125,-0.0499267578125,-0.018610436013583,-0.042425487745507,0.013779728112288
1492639066.1,40.4533953856059,-79.9469436680444,6.5,0.021942138671875,-1.05784606933594,-0.126373291015625,0.00315957431727,-0.043636427093166,-0.021179321201073
1492639066.3,40.4533770608382,-79.9470013010732,4.44000005722046,0.007598876953125,-1.06147766113281,-0.145858764648438,0.023589215671486,-0.005474393936767,-0.014671354445247
1492639066.5,40.4533770608382,-79.9470013010732,4.44000005722046,0.022735595703125,-1.03237915039062,-0.1549072265625,-0.027519775124334,-0.047682035105106,0.039291213458593
1492639066.7,40.4533770608382,-79.9470013010732,4.44000005722046,0.029296875,-1.05226135253906,-0.129241943359375,-0.01741387773581,-0.007329019319898,0.023297333216013
1492639066.9,40.4533770608382,-79.9470013010732,4.44000005722046,0.031570434570313,-1.03675842285156,-0.106491088867188,-0.023650468376558,-0.03388552907795,-0.00228712274416
1492639067.1,40.4533770608382,-79.9470013010732,4.44000005722046,0.05072021484375,-1.01455688476562,-0.003448486328125,-0.005182511481294,0.003223490183432,-0.008591091360487
1492639067.3,40.4533698505228,-79.9470239781584,1.73000001907349,0.043914794921875,-1.01258850097656,0.061111450195313,-0.017172861657158,-0.008397213233129,0.005176918843005
1492639067.5,40.4533698505228,-79.9470239781584,1.73000001907349,0.040863037109375,-0.92938232421875,0.265167236328125,0.005456817073572,0.002090581455712,-0.008479238594703
1492639067.7,40.4533698505228,-79.9470239781584,1.73000001907349,0.053390502929688,-0.956192016601562,0.172286987304688,-0.020023509287979,0.002255431127188,-0.014071610567761
1492639067.9,40.4533698505228,-79.9470239781584,1.73000001907349,0.060806274414063,-0.96600341796875,0.200271606445312,-0.005444832848667,-0.00634604656155,0.005291701085987
1492639068.1,40.4533698505228,-79.9470239781584,1.73000001907349,0.050155639648438,-0.965408325195312,0.213851928710938,-0.011654791878514,-0.002052498252124,-0.005445099164776
1492639068.3,40.4533685415287,-79.9470280950616,0,0.06317138671875,-0.964935302734375,0.193344116210938,-0.015981629701566,-0.005215002046593,-0.002282595370307
1492639068.5,40.4533685415287,-79.9470280950616,0,0.058929443359375,-0.960861206054688,0.201828002929688,-0.014946192669743,-0.005221393633209,-0.00013954964112
1492639068.7,40.4533685415287,-79.9470280950616,0,0.059951782226563,-0.962417602539062,0.203659057617188,-0.016033561342822,-0.006277869637644,0.000918257943859
1492639068.9,40.4533685415287,-79.9470280950616,0,0.05694580078125,-0.9627685546875,0.1964111328125,-0.0170676667941,-0.004143878656163,-0.000164050723149
1492639069.1,40.4533685397315,-79.9470281007139,0,0.062759399414063,-0.957778930664062,0.208541870117188,-0.014931545283747,-0.005221659949318,-0.001205613025479
1492639069.3,40.4533685397315,-79.9470281007139,0,0.05767822265625,-0.963104248046875,0.198715209960938,-0.014931545283747,-0.005221659949318,-0.001205613025479
1492639069.5,40.4533685397315,-79.9470281007139,0,0.060760498046875,-0.963638305664062,0.200332641601562,-0.014931545283747,-0.005221659949318,-0.001205613025479
1492639069.7,40.4533685397315,-79.9470281007139,0,0.061843872070313,-0.961929321289062,0.20367431640625,-0.014931545283747,-0.005221659949318,-0.001205613025479
1492639069.9,40.4533685397315,-79.9470281007139,0,0.058334350585938,-0.9615478515625,0.199798583984375,-0.014931545283747,-0.005221659949318,-0.001205613025479
1492639070.1,40.4533685397315,-79.9470281007139,0,0.059555053710938,-0.964248657226562,0.202880859375,-0.014931545283747,-0.005221659949318,-0.001205613025479
1492639070.3,40.4533685379395,-79.9470281063501,0,0.05853271484375,-0.962051391601562,0.199874877929688,-0.013834855546853,-0.000973918010642,-0.00120534670937
1492639070.5,40.4533685379395,-79.9470281063501,0,0.058074951171875,-0.962814331054688,0.202377319335938,-0.017051687827559,-0.002016545577408,-0.000169377045329
1492639070.7,40.4533685379395,-79.9470281063501,0,0.05987548828125,-0.964797973632812,0.20025634765625,-0.013873471382659,-0.004164651312666,-0.000131293841741
1492639070.9,40.4533685379395,-79.9470281063501,0,0.058807373046875,-0.963409423828125,0.2021484375,-0.014939534767018,-0.006285326488696,-0.001202949864389
1492639071.1,40.4533685379395,-79.9470281063501,0,0.059036254882813,-0.962860107421875,0.199722290039062,-0.018132398597914,-0.004136954437329,-0.000174969683618
1492639071.3,40.4533685360752,-79.9470281122134,0,0.0599365234375,-0.96148681640625,0.202499389648438,-0.016004266570831,-0.006278402269862,-0.001213868824858
1492639071.5,40.4533685360752,-79.9470281122134,0,0.059539794921875,-0.963623046875,0.20379638671875,-0.013881460865929,-0.005228317852044,-0.000128630680651
1492639071.7,40.4533685360752,-79.9470281122134,0,0.0601806640625,-0.961013793945312,0.197525024414062,-0.013890781929744,-0.008419583786286,-0.001186704581739
1492639071.9,40.4533685360752,-79.9470281122134,0,0.057723999023438,-0.962127685546875,0.199905395507812,-0.016010924473556,-0.005214469414375,-0.000150468601589
1492639072.1,40.4533685360752,-79.9470281122134,0,0.059814453125,-0.96185302734375,0.199752807617188,-0.014946192669743,-0.005221393633209,-0.00013954964112
1492639072.3,40.45336853427,-79.9470281178909,0,0.056915283203125,-0.96258544921875,0.202957153320312,-0.014938203186473,-0.004157727093832,-0.00014221280221
1492639072.5,40.45336853427,-79.9470281178909,0,0.057708740234375,-0.961105346679688,0.20281982421875,-0.016004266570831,-0.006278402269862,-0.001213868824858
1492639072.7,40.45336853427,-79.9470281178909,0,0.059539794921875,-0.963058471679688,0.199081420898438,-0.010671286487948,-0.003121757429791,-0.000101200121423
1492639072.9,40.45336853427,-79.9470281178909,0,0.056838989257813,-0.9615478515625,0.203262329101562,-0.014946192669743,-0.005221393633209,-0.00013954964112
1492639073.1,40.45336853427,-79.9470281178909,0,0.06060791015625,-0.965042114257812,0.198272705078125,-0.011761318322117,-0.008433432223954,-0.001164866660801
1492639073.3,40.4533686346164,-79.9470278022925,0,0.05926513671875,-0.964828491210938,0.201675415039062,-0.014946192669743,-0.005221393633209,-0.00013954964112
1492639073.5,40.4533686346164,-79.9470278022925,0,0.0584716796875,-0.964569091796875,0.200531005859375,-0.017082314180095,-0.004143612340054,0.00090201266121
1492639073.7,40.4533686346164,-79.9470278022925,0,0.05926513671875,-0.965072631835938,0.200927734375,-0.012778113226309,-0.002044508768854,-0.00119176458781
1492639073.9,40.4533686346164,-79.9470278022925,0,0.057037353515625,-0.967483520507812,0.203460693359375,-0.017045029924834,-0.003080478432895,-0.001232777268598
1492639074.1,40.4533686346164,-79.9470278022925,0,0.059600830078125,-0.961944580078125,0.203521728515625,-0.014968829539008,-0.006284793856478,0.000929176904329
1492639074.3,40.453368632721,-79.9470278082537,0,0.05908203125,-0.966659545898438,0.202911376953125,-0.019175825113007,-0.005194229390091,-0.002315352251715
1492639074.5,40.453368632721,-79.9470278082537,0,0.058807373046875,-0.963790893554688,0.202804565429688,-0.014938203186473,-0.004157727093832,-0.00014221280221
1492639074.7,40.453368632721,-79.9470278082537,0,0.058120727539063,-0.962875366210938,0.203628540039062,-0.014931545283747,-0.005221659949318,-0.001205613025479
1492639075,40.453368632721,-79.9470278082537,0,0.059280395507813,-0.963287353515625,0.203033447265625,-0.011797270996833,-0.007368966736249,0.002030660331185
1492639075.1,40.453368632721,-79.9470278082537,0,0.058395385742188,-0.96148681640625,0.203903198242188,-0.015980298121021,-0.003087402651729,-0.001221858308128
1492639075.3,40.4533686309045,-79.9470278139668,0,0.059829711914063,-0.962356567382812,0.201309204101562,-0.017061008891375,-0.00520781151165,-0.001227450946418
1492639075.5,40.4533686309045,-79.9470278139668,0,0.057388305664063,-0.961456298828125,0.20794677734375,-0.014976819022279,-0.007348460395856,0.000931840065419
1492639075.7,40.4533686309045,-79.9470278139668,0,0.059616088867188,-0.962188720703125,0.199447631835938,-0.013866813479934,-0.005228584168153,-0.00119469406501
1492639075.9,40.4533686309045,-79.9470278139668,0,0.060272216796875,-0.96441650390625,0.201431274414062,-0.014952850572468,-0.004157460777723,0.000923850582148
1492639076.1,40.4533686309045,-79.9470278139668,0,0.059844970703125,-0.963287353515625,0.204803466796875,-0.014923555800477,-0.004157993409941,-0.001208276186569
1492639076.3,40.4533692021986,-79.9470260171958,0,0.056793212890625,-0.959197998046875,0.20025634765625,-0.014960840055738,-0.0052211273171,0.000926513743239
1492639076.6,40.4533692021986,-79.9470260171958,0,0.058334350585938,-0.961090087890625,0.200164794921875,-0.013881460865929,-0.005228317852044,-0.000128630680651
1492639076.7,40.4533692021986,-79.9470260171958,0,0.05841064453125,-0.96380615234375,0.202438354492188,-0.012846023834106,-0.00523470943866,0.002014415048536
1492639076.9,40.4533692021986,-79.9470260171958,0,0.058990478515625,-0.961990356445312,0.20135498046875,-0.011759986741572,-0.00630583282909,-0.000104129598622
1492639077.1,40.4533692021986,-79.9470260171958,0,0.058929443359375,-0.96099853515625,0.20208740234375,-0.013904097735195,-0.006291718075312,0.000940095864798
1492639077.3,40.4533692003245,-79.9470260230902,0,0.056838989257813,-0.96484375,0.199188232421875,-0.013866813479934,-0.005228584168153,-0.00119469406501
1492639077.5,40.4533692003245,-79.9470260230902,0,0.06036376953125,-0.963760375976562,0.1968994140625,-0.016024240279007,-0.003086603703402,0.001976331844948
1492639077.7,40.4533692003245,-79.9470260230902,0,0.056991577148438,-0.961380004882812,0.199539184570312,-0.017061008891375,-0.00520781151165,-0.001227450946418
1492639077.9,40.4533692003245,-79.9470260230902,0,0.058502197265625,-0.9637451171875,0.198165893554688,-0.017114272113176,-0.008398278497565,0.00091266530557
1492639078.1,40.4533691984573,-79.9470260289627,0,0.057846069335938,-0.959976196289062,0.198516845703125,-0.014923555800477,-0.004157993409941,-0.001208276186569
1492639078.3,40.4533691984573,-79.9470260289627,0,0.058975219726563,-0.964935302734375,0.203994750976562,-0.014946192669743,-0.005221393633209,-0.00013954964112
1492639078.5,40.4533691984573,-79.9470260289627,0,0.057479858398438,-0.96624755859375,0.200637817382812,-0.010664628585222,-0.004185690285278,-0.001164600344692
1492639078.7,40.4533691984573,-79.9470260289627,0,0.061920166015625,-0.961639404296875,0.195404052734375,-0.015996277087561,-0.005214735730484,-0.001216531985948
1492639078.9,40.4533691984573,-79.9470260289627,0,0.057662963867188,-0.96160888671875,0.206329345703125,-0.017127587918627,-0.006270412786592,0.003039465752107
1492639079.2,40.4533686689121,-79.9470276944294,0,0.060043334960938,-0.96514892578125,0.197189331054688,-0.013866813479934,-0.005228584168153,-0.00119469406501
1492639079.3,40.4533686689121,-79.9470276944294,0,0.056900024414063,-0.966796875,0.20068359375,-0.014954182153013,-0.006285060172587,-0.00013688648003
1492639079.5,40.4533686689121,-79.9470276944294,0,0.060409545898438,-0.959060668945312,0.207122802734375,-0.018148377564454,-0.006264287516084,-0.000169643361438
1492639079.7,40.4533686689121,-79.9470276944294,0,0.054550170898438,-0.962203979492188,0.2086181640625,-0.016058861373178,-0.011596468650641,-0.000134489635049
1492639079.9,40.4533686689121,-79.9470276944294,0,0.061370849609375,-0.962387084960938,0.202850341796875,-0.014906245253392,9.69390636788843E-05,-0.000152865446571
1492639080.1,40.4533686689121,-79.9470276944294,0,0.057952880859375,-0.963088989257812,0.20379638671875,-0.012832708028656,-0.007362575149633,-0.000112385398001
1492639080.3,40.4533686670231,-79.9470277003706,0,0.063018798828125,-0.96551513671875,0.194992065429688,-0.010649981199227,-0.004185956601387,-0.00223066372905
1492639080.6,40.4533686670231,-79.9470277003706,0,0.056350708007813,-0.963134765625,0.205429077148438,-0.018163024950449,-0.006264021199975,0.000896420022921
1492639080.7,40.4533686670231,-79.9470277003706,0,0.060943603515625,-0.962814331054688,0.202117919921875,-0.014907576833937,-0.002030660331185,-0.001213602508749
1492639080.9,40.4533686670231,-79.9470277003706,0,0.061370849609375,-0.96234130859375,0.201416015625,-0.014947524250288,-0.007348993028074,-0.001200286703299
1492639081.1,40.453368665126,-79.9470277063372,0,0.055343627929688,-0.962921142578125,0.205581665039062,-0.016010924473556,-0.005214469414375,-0.000150468601589
1492639081.3,40.453368665126,-79.9470277063372,0,0.062408447265625,-0.963211059570312,0.199493408203125,-0.012831376448111,-0.005234975754769,0.000948351664177
1492639081.5,40.453368665126,-79.9470277063372,0,0.0552978515625,-0.962966918945312,0.203659057617188,-0.018200309205711,-0.007327155107135,0.003031209952728
1492639081.7,40.453368665126,-79.9470277063372,0,0.067657470703125,-0.9649658203125,0.235092163085938,-0.019267704170614,-0.011575429678029,0.000898816867902
1492639081.9,40.453368665126,-79.9470277063372,0,0.074493408203125,-0.92889404296875,0.399551391601562,0.030859911763511,-0.004455734819812,-0.000738760886388
1492639082.1,40.4533670563566,-79.9470327660606,0.189999997615814,0.066665649414063,-0.901275634765625,0.415267944335938,-0.003367300882296,-0.019124692420077,0.002147306786931
1492639082.3,40.4533670563566,-79.9470327660606,0.189999997615814,0.08221435546875,-0.922088623046875,0.405914306640625,-0.024454210393544,-0.003032807849382,-0.004507400144959
1492639082.5,40.4533670563566,-79.9470327660606,0.189999997615814,0.0399169921875,-0.916595458984375,0.42376708984375,-0.011021492171293,-0.024391626107927,0.013810887097042
1492639082.7,40.4533670563566,-79.9470327660606,0.189999997615814,0.158615112304688,-0.832077026367188,0.423690795898438,-0.096112951108742,0.096359027193465,-0.005497563438251
1492639082.9,40.4533670563566,-79.9470327660606,0.189999997615814,0.081954956054688,-0.8662109375,0.41583251953125,-0.068775602519078,0.086598541798325,-0.062768043732078
1492639083.2,40.4533614634284,-79.9470503563184,2.04999995231628,0.139297485351562,-0.882293701171875,0.384750366210938,-0.033012811188731,0.06509484757648,-0.042088331551503
1492639083.3,40.4533614634284,-79.9470503563184,2.04999995231628,0.047943115234375,-0.914520263671875,0.472259521484375,-0.034099380913484,-0.009352222800031,-0.003523628438284
1492639083.5,40.4533614634284,-79.9470503563184,2.04999995231628,0.092422485351563,-0.911239624023438,0.348251342773438,-0.020918331414245,-0.070067501963876,0.011695005610974
1492639083.7,40.4533614634284,-79.9470503563184,2.04999995231628,-0.07843017578125,-0.936233520507812,0.425369262695312,-0.045679071649257,-0.24858638036683,0.166503228196735
1492639083.9,40.4533614634284,-79.9470503563184,2.04999995231628,0.079818725585938,-0.904922485351562,0.35382080078125,0.033573939230411,0.040199884022528,-0.018951853265331
1492639084.1,40.4533614634284,-79.9470503563184,2.04999995231628,0.071990966796875,-0.980560302734375,0.303085327148438,-0.037838991716173,-0.010397779843996,-0.041942922955985
1492639084.3,40.4533503004208,-79.9470854649732,4.19000005722046,0.108917236328125,-0.951553344726562,0.25311279296875,-0.042771166055,0.076862291169104,-0.023026756049261
1492639084.5,40.4533503004208,-79.9470854649732,4.19000005722046,0.099349975585938,-0.863418579101562,0.299774169921875,-0.015358450006487,0.042645198535439,-0.021591578537817
1492639084.7,40.4533503004208,-79.9470854649732,4.19000005722046,0.060256958007813,-1.01390075683594,0.253677368164062,-0.032858347845507,0.112963570274,-0.027283286419535
1492639084.9,40.4533503004208,-79.9470854649732,4.19000005722046,0.093658447265625,-0.963531494140625,0.341949462890625,-0.069950056559803,0.023854999148276,-0.011439874778544
1492639085.1,40.4533341991403,-79.9471361049367,5.05000019073486,-0.022750854492188,-0.85980224609375,0.289215087890625,-0.041449971838211,0.060905961497894,0.027140008352889
1492639085.3,40.4533341991403,-79.9471361049367,5.05000019073486,0.054290771484375,-0.921844482421875,0.32440185546875,-0.036804886264895,0.01087208883414,-0.028126443220654
1492639085.5,40.4533341991403,-79.9471361049367,5.05000019073486,0.221099853515625,-0.882080078125,0.240631103515625,-0.141392548594487,0.075358936733754,-0.131720213831428
1492639085.7,40.4533341991403,-79.9471361049367,5.05000019073486,0.115768432617188,-0.95782470703125,0.26702880859375,-0.005133775633346,-0.063785104952379,0.028899825201213
1492639085.9,40.4533341991403,-79.9471361049367,5.05000019073486,0.091934204101563,-0.900894165039062,0.308685302734375,0.028962942119048,-0.03528422128246,0.043036150583463
1492639086.1,40.4533341991403,-79.9471361049367,5.05000019073486,0.04156494140625,-0.971328735351562,0.34478759765625,-0.057271811874372,0.018454641089813,-0.007031277910027
1492639086.3,40.4533117449266,-79.9472067254416,6.42999982833862,0.159393310546875,-1.01356506347656,0.340179443359375,-0.092364019242237,-0.004721518296601,-0.023323964826914
1492639086.5,40.4533117449266,-79.9472067254416,6.42999982833862,0.010421752929688,-0.955459594726562,0.356307983398438,-0.015557388139916,-0.022231269831655,0.035083152620159
1492639086.7,40.4533117449266,-79.9472067254416,6.42999982833862,-0.1912841796875,-0.870330810546875,0.359344482421875,0.03741821226394,-0.111932926932139,0.006003031413148
1492639086.9,40.4533117449266,-79.9472067254416,6.42999982833862,0.007598876953125,-0.85736083984375,0.305130004882812,-0.039776707725315,0.038547925198352,-0.029294505674763
1492639087.1,40.4533117449266,-79.9472067254416,6.42999982833862,0.018997192382813,-0.955810546875,0.360443115234375,-0.168105119592418,-0.025503495863035,-0.025112011182793
1492639087.3,40.4532872952571,-79.9472836218334,7.73000001907349,0.016494750976563,-0.996200561523438,0.359451293945312,-0.103957558415679,0.009182046806375,-0.024544757870606
1492639087.5,40.4532872952571,-79.9472836218334,7.73000001907349,-0.043228149414063,-0.953094482421875,0.146286010742188,0.143474341618602,0.025652899200188,-0.04231203708307
1492639087.7,40.4532872952571,-79.9472836218334,7.73000001907349,0.051300048828125,-1.10102844238281,0.253143310546875,-0.07699757975248,-0.034601120462855,0.004632036083975
1492639087.9,40.4532872952571,-79.9472836218334,7.73000001907349,0.061447143554688,-0.778900146484375,0.326309204101562,-0.238325487002864,-0.023983629828927,-0.029033515887935
1492639088.1,40.4532872952571,-79.9472836218334,7.73000001907349,0.02142333984375,-0.940689086914062,0.2969970703125,-0.136760246194403,-0.106537628879748,0.05218544050843
1492639088.3,40.4532587098142,-79.947373525601,8.5600004196167,-0.033721923828125,-0.805496215820312,0.286590576171875,-0.051950816016394,-0.009239038453703,-0.021832328300361
1492639088.5,40.4532587098142,-79.947373525601,8.5600004196167,-0.013214111328125,-0.960830688476562,0.232879638671875,0.000408262595109,-0.054249390353241,0.018269817710162
1492639088.7,40.4532587098142,-79.947373525601,8.5600004196167,-0.003326416015625,-0.849563598632812,0.235671997070312,-0.149545283639547,0.017986723686286,-0.034630148918736
1492639088.9,40.4532587098142,-79.947373525601,8.5600004196167,-0.026031494140625,-0.934661865234375,0.30841064453125,-0.043283291932622,0.128985946340244,-0.03489486713109
1492639089.1,40.4532587098142,-79.947373525601,8.5600004196167,-0.069473266601563,-1.056396484375,0.1939697265625,-0.076625536148196,0.061122742810627,-0.047855673208179
1492639089.3,40.4532264383079,-79.947481059461,8.96000003814697,-0.188262939453125,-0.931640625,0.350601196289062,-6.81769239060285E-05,0.087208938320171,-0.102582302028762
1492639089.5,40.4532264383079,-79.947481059461,8.96000003814697,-0.064544677734375,-0.964187622070312,0.223342895507812,-0.112140387181057,0.013499030933394,0.030803452748402
1492639089.7,40.4532264383079,-79.947481059461,8.96000003814697,-0.021255493164063,-1.03385925292969,0.14990234375,0.089645730717593,-0.061235128208628,-0.12473740545324
1492639089.9,40.4532264383079,-79.947481059461,8.96000003814697,-0.008697509765625,-1.00814819335938,0.265945434570312,0.151899518043177,0.04579918021442,-0.101985753944584
1492639090.1,40.4532264383079,-79.947481059461,8.96000003814697,0.008575439453125,-0.947479248046875,0.200469970703125,-0.019678629926814,0.073524551374908,-0.000391218364133
1492639090.3,40.4531974456379,-79.9475791078329,9.39000034332275,0.103225708007812,-1.13302612304688,0.089508056640625,-0.013063870411275,-0.487025584348241,0.453197845865945
1492639090.5,40.4531974456379,-79.9475791078329,9.39000034332275,0.041030883789063,-0.868804931640625,0.225616455078125,0.024314128120205,0.17428418595362,-0.047114249160701
1492639090.7,40.4531974456379,-79.9475791078329,9.39000034332275,-0.8782958984375,-0.998733520507812,0.222579956054688,0.072084846489611,0.987629561830359,-0.60102299375741
1492639090.9,40.4531974456379,-79.9475791078329,9.39000034332275,-0.262191772460938,-1.13006591796875,0.390457153320312,-0.063631174241372,0.097192862930769,-0.121384485640831
1492639091.1,40.4531974456379,-79.9475791078329,9.39000034332275,0.03302001953125,-0.94525146484375,0.126434326171875,-0.044957354993846,0.107715278713781,-0.079638103973294
1492639091.3,40.4531656275439,-79.9476862571454,9.88000011444092,-0.159194946289062,-0.715789794921875,0.3179931640625,-0.016865266551254,-0.008402805871418,-0.017210412228528
1492639091.5,40.4531656275439,-79.9476862571454,9.88000011444092,0.745254516601562,-0.933380126953125,0.095687866210938,-0.217267605947498,0.603369504993878,-0.677628822513539
1492639091.7,40.4531656275439,-79.9476862571454,9.88000011444092,-0.030654907226563,-0.967758178710938,0.429443359375,0.154206614495512,-0.447714663497581,0.314068717881917
1492639091.9,40.4531656275439,-79.9476862571454,9.88000011444092,-0.051681518554688,-1.10580444335938,0.296417236328125,-0.002335858592109,-0.025513882191286,0.001108141329582
1492639092.1,40.4531656275439,-79.9476862571454,9.88000011444092,0.086517333984375,-0.932632446289062,0.3289794921875,-0.154129915456118,0.063751815438753,-0.063582971025642
1492639092.3,40.4531314178242,-79.9478018685605,10.7700004577637,0.120941162109375,-0.849029541015625,0.258895874023438,-0.306148210483912,0.094524375518509,-0.066285014267636
1492639092.5,40.4531314178242,-79.9478018685605,10.7700004577637,0.079559326171875,-0.970169067382812,0.182083129882812,-0.147206495570239,-0.066047193982292,0.059437494472825
1492639092.7,40.4531314178242,-79.9478018685605,10.7700004577637,0.043991088867188,-0.906478881835938,0.233810424804688,-0.121278225513336,0.057169546488513,0.022067485424615
1492639092.9,40.4531314178242,-79.9478018685605,10.7700004577637,-0.013214111328125,-0.842803955078125,0.253036499023438,0.075614866514511,-0.107912086318338,0.095945704592285
1492639093.1,40.4531314178242,-79.9478018685605,10.7700004577637,-0.033004760742188,-0.94012451171875,0.385177612304688,0.086069105373617,-0.112233065186991,0.107792244069284
1492639093.3,40.4530958206784,-79.9479246677893,11.210000038147,-0.090408325195313,-0.881317138671875,0.235107421875,-0.073375680669972,-0.190985135465615,0.043456397403477
1492639093.5,40.4530958206784,-79.9479246677893,11.210000038147,0.028610229492188,-1.17243957519531,0.194320678710938,0.068735388786618,-0.001517735505236,-0.043007122127581
1492639093.7,40.4530958206784,-79.9479246677893,11.210000038147,0.025009155273438,-0.934402465820312,0.425872802734375,-0.109385879665588,0.033673807771289,-0.081172883709506
1492639093.9,40.4530958206784,-79.9479246677893,11.210000038147,0.260269165039062,-1.28334045410156,0.038467407226563,0.197484313789845,0.134840373364565,-0.193443233151759
1492639094.2,40.4530594782913,-79.9480500378722,11.5500001907349,0.303558349609375,-0.717193603515625,0.165054321289062,-0.250173890692627,0.046319029259203,0.096477005229756
1492639094.3,40.4530594782913,-79.9480500378722,11.5500001907349,0.170394897460938,-0.9139404296875,0.40838623046875,0.04943918879234,0.089045720523998,0.0930370000497
1492639094.5,40.4530594782913,-79.9480500378722,11.5500001907349,-0.265121459960938,-1.09457397460938,-0.017425537109375,-0.022352443661253,0.153296878667141,-0.149894424058456
1492639094.7,40.4530594782913,-79.9480500378722,11.5500001907349,-0.021072387695313,-1.15255737304688,0.06884765625,0.456806961775221,-0.1210169694104,0.170252426379349
1492639094.9,40.4530594782913,-79.9480500378722,11.5500001907349,0.629791259765625,-0.844863891601562,0.343765258789062,-0.082309787178861,-0.743992400033332,0.470211450489916
1492639095.1,40.4530594782913,-79.9480500378722,11.5500001907349,0.49212646484375,-0.785629272460938,0.152908325195312,-0.091430048647946,-0.215323498351741,0.104108559649487
1492639095.3,40.4530228914142,-79.9481762513704,11.7700004577637,0.21435546875,-1.01860046386719,0.063308715820313,0.115703696719583,-0.181583910501527,0.005918076574374
1492639095.5,40.4530228914142,-79.9481762513704,11.7700004577637,0.029022216796875,-0.623916625976562,0.385894775390625,-0.248521665552341,-0.112181666177953,0.122492094338195
1492639095.7,40.4530228914142,-79.9481762513704,11.7700004577637,-0.09588623046875,-1.23255920410156,0.280487060546875,0.362769678420087,-0.267207469024773,0.114223778101826
1492639095.9,40.4530228914142,-79.9481762513704,11.7700004577637,-0.055160522460938,-1.3365478515625,0.251510620117188,-0.434569832989168,-0.024843564544913,-0.085417429854875
1492639096.1,40.4530228914142,-79.9481762513704,11.7700004577637,0.72607421875,-1.38766479492188,0.1241455078125,0.191096455599181,0.677351321127952,-0.363370487562009
1492639096.3,40.4529843903814,-79.9483097018394,12.1599998474121,0.067367553710938,-1.03321838378906,0.18304443359375,-0.211229154491853,-0.00927206165122,-0.055449410740431
1492639096.5,40.4529843903814,-79.9483097018394,12.1599998474121,0.111923217773438,-1.095458984375,0.185928344726562,0.003624295927489,0.008481901755793,-0.026640133016281
1492639096.7,40.4529843903814,-79.9483097018394,12.1599998474121,-0.170455932617188,-1.21084594726562,-0.030517578125,0.187217028839262,-0.106532835189786,-0.042589272152547
1492639096.9,40.4529843903814,-79.9483097018394,12.1599998474121,0.2193603515625,-0.951507568359375,-0.17132568359375,0.055694687876827,-0.284366482244263,0.0546147760548
1492639097.1,40.4529843903814,-79.9483097018394,12.1599998474121,0.277633666992188,-0.863082885742188,0.294296264648438,0.143685796609154,-0.164735954497358,0.071200144375487
1492639097.3,40.452946830253,-79.9484440073485,12.0100002288818,0.097305297851563,-0.701370239257812,0.21441650390625,-0.282737160289352,0.006100769425154,0.041870484974335
1492639097.5,40.452946830253,-79.9484440073485,12.0100002288818,0.09832763671875,-1.18038940429688,0.355819702148438,0.083683445669124,0.081349451289778,-0.078252993890343
1492639097.7,40.452946830253,-79.9484440073485,12.0100002288818,-0.040023803710938,-1.0428466796875,0.281173706054688,-0.010076069984315,0.058568505009132,-0.009850233923876
1492639097.9,40.452946830253,-79.9484440073485,12.0100002288818,0.207672119140625,-0.956192016601562,-0.015426635742188,0.017213341705727,0.07753180986715,-0.048003478648678
1492639098.1,40.452946830253,-79.9484440073485,12.0100002288818,-0.108642578125,-0.470993041992188,0.307769775390625,0.049647447989584,0.145411524995525,0.031053257258651
1492639098.3,40.4529087004402,-79.948580349905,12.2600002288818,-0.012008666992188,-1.60560607910156,0.385498046875,-0.305257116783171,-0.105463576012119,-0.08495164298022
1492639098.5,40.4529087004402,-79.948580349905,12.2600002288818,0.070816040039063,-0.804031372070312,0.122756958007812,0.065103902324186,-0.072751968342676,0.027509655112192
1492639098.7,40.4529087004402,-79.948580349905,12.2600002288818,0.031356811523438,-1.2596435546875,0.2532958984375,0.043083554850866,-0.073664101016028,0.079531044897472
1492639098.9,40.4529087004402,-79.948580349905,12.2600002288818,-0.038986206054688,-0.890228271484375,0.171417236328125,0.100560163813065,0.068488247437459,0.004051466966338
1492639099.1,40.4529087004402,-79.948580349905,12.2600002288818,0.043991088867188,-1.12623596191406,0.135971069335938,0.177708478483243,-0.05114121504501,0.059526976685451
1492639099.3,40.4528706280346,-79.9487164871878,12.2399997711182,-0.127288818359375,-0.884384155273438,0.2740478515625,-0.049822417673202,-0.136885414765637,0.063815997621024
1492639099.5,40.4528706280346,-79.9487164871878,12.2399997711182,-0.10821533203125,-1.00616455078125,0.239334106445312,0.022230204567218,-0.05439746210985,-0.019890084917366
1492639099.7,40.4528706280346,-79.9487164871878,12.2399997711182,-0.045120239257813,-1.000732421875,0.224960327148438,-0.030869232827327,-0.068947110093279,-0.038521826219669
1492639099.9,40.4528706280346,-79.9487164871878,12.2399997711182,-0.020263671875,-1.02998352050781,0.214630126953125,0.02515595334078,0.024296284940902,-0.034990208298115
1492639100.1,40.4528706280346,-79.9487164871878,12.2399997711182,-0.044845581054688,-0.981063842773438,0.1173095703125,-0.036982252793494,0.122550683882176,-0.109448730267313
1492639100.3,40.4528583074365,-79.9488674663752,11.9899997711182,0.0003662109375,-1.03024291992188,0.197860717773438,0.121156785367629,0.085358573994784,-0.090674243530582
1492639100.5,40.4528583074365,-79.9488674663752,11.9899997711182,0.085311889648438,-1.032958984375,0.270111083984375,-0.083155340824961,-0.131345773382163,0.090115778649992
1492639100.7,40.4528583074365,-79.9488674663752,11.9899997711182,0.072509765625,-1.021484375,0.151718139648438,0.071900822058286,0.120787937556653,-0.051820054806871
1492639100.9,40.4528583074365,-79.9488674663752,11.9899997711182,0.228073120117188,-1.03189086914062,0.145477294921875,0.01464365756991,0.197751961479398,-0.02808196843045
1492639101.1,40.4528583074365,-79.9488674663752,11.9899997711182,-0.084854125976563,-1.00456237792969,0.2679443359375,-0.095424257650847,-0.099369997121909,-0.007117830645455
1492639101.3,40.4528183676679,-79.9489975535124,11.8000001907349,-0.004180908203125,-0.996490478515625,0.128463745117188,-0.011847072109218,-0.09139675913432,0.037432060701609
1492639101.5,40.4528183676679,-79.9489975535124,11.8000001907349,-0.136184692382812,-0.99896240234375,0.208450317382812,0.068518607473886,-0.111061540623465,0.068159613358943
1492639101.7,40.4528183676679,-79.9489975535124,11.8000001907349,-0.032684326171875,-1.10111999511719,0.197357177734375,0.094214649883733,-0.094209323561553,0.067312994448407
1492639101.9,40.4528183676679,-79.9489975535124,11.8000001907349,-0.02447509765625,-0.898834228515625,0.091445922851563,-0.042436939338195,0.142812546087717,-0.0114651748089
1492639102.1,40.4528183676679,-79.9489975535124,11.8000001907349,0.090118408203125,-0.84173583984375,0.143508911132812,0.115366806841688,-0.169875855401211,0.036804619948786
1492639102.3,40.4527800623704,-79.9491238687932,11.3699998855591,-0.198944091796875,-0.879974365234375,0.381729125976562,0.270677567925147,0.093980025391697,0.037713823144939
1492639102.5,40.4527800623704,-79.9491238687932,11.3699998855591,-0.141510009765625,-0.904281616210938,0.108749389648438,-0.143862364189426,-0.21711953419089,0.043868388424112
1492639102.7,40.4527800623704,-79.9491238687932,11.3699998855591,0.030288696289063,-1.12760925292969,0.224624633789062,0.116925555027711,-0.117764983403304,0.029222600325331
1492639102.9,40.4527800623704,-79.9491238687932,11.3699998855591,0.01666259765625,-1.02560424804688,0.04583740234375,0.079740369359153,-0.019665846753581,-0.001265267833897
1492639103.1,40.4527800623704,-79.9491238687932,11.3699998855591,-0.081985473632813,-1.02960205078125,0.10015869140625,-0.052829126543902,0.007785485130738,-0.026150111375706
1492639103.3,40.4527231208593,-79.9492304873408,10.5200004577637,0.030792236328125,-1.02224731445312,0.004058837890625,0.148815311184756,-0.016934508739596,-0.066670373677371
1492639103.5,40.4527231208593,-79.9492304873408,10.5200004577637,-0.06024169921875,-1.02693176269531,0.089614868164063,-0.060549630544042,-0.147452837971071,0.063733439627231
1492639103.7,40.4527231208593,-79.9492304873408,10.5200004577637,-0.0224609375,-0.970321655273438,-0.009689331054688,-0.002538258834955,0.002148904683585,0.030888673903284
1492639103.9,40.4527231208593,-79.9492304873408,10.5200004577637,0.130966186523438,-0.997512817382812,0.12322998046875,-0.055426241238947,0.123738453728352,-0.084051494531773
