timestamp,latitude,longitude,speed,accelerometerX,accelerometerY,accelerometerZ,gyroX,gyroY,gyroZ,pothole
1492638964.5,40.447444787735,-79.9441886564716,0.0,0.016998291015625,-0.9622344970703121,0.203887939453125,-0.016994429864123,0.019258649422908003,0.00723980342338,No
1492638964.8,40.447444787735,-79.9441886564716,0.0,0.050750732421875,-0.9629974365234379,0.19395446777343803,-0.018083130117746996,0.004372644193801,0.00086978841202,No
1492638964.9,40.447444787735,-79.9441886564716,0.0,0.03741455078125,-0.959228515625,0.19154357910156197,-0.014992797988818998,-0.009475793474611,0.000937166387599,No
1492638965.1,40.4474447940709,-79.94418865681621,0.0,0.05378723144531299,-0.9638519287109379,0.277252197265625,-0.046893473106332996,-0.001822134817832,0.0016570188302470002,No
1492638965.3,40.4474447940709,-79.94418865681621,0.0,0.031646728515625,-0.9530029296875,0.27105712890625,-0.007370564632903001,0.003238403885536,-0.00434867574399,No
1492638965.5,40.4474447940709,-79.94418865681621,0.0,0.03877258300781299,-0.9473419189453121,0.283523559570312,-0.012811402739935,-0.008426774321229,-0.0022418490056289996,No
1492638965.7,40.4474447940709,-79.94418865681621,0.0,0.04447937011718799,-0.947998046875,0.278518676757812,-0.017015735152843,-0.0030810110651129994,-0.003364904037315,No
1492638965.9,40.4474447940709,-79.94418865681621,0.0,0.05328369140625,-0.9471435546875,0.274276733398438,-0.021337246653715,-0.009435047109933,-0.0023265375282929997,No
1492638966.1,40.4474447940709,-79.94418865681621,0.0,0.04887390136718799,-0.94635009765625,0.2652587890625,-0.02671816363622,-0.0072717613564609995,0.0029438582689740003,No
1492638966.3,40.4474535244086,-79.9441891316783,0.40999999642372104,0.05088806152343799,-0.93658447265625,0.295486450195312,-0.025608158093875,-0.005151885128757999,0.000817324138545,No
1492638966.5,40.4474535244086,-79.9441891316783,0.40999999642372104,0.036956787109375,-0.9325714111328121,0.322357177734375,-0.026482473879747996,0.006553506810466999,-0.006685333284426,No
1492638966.7,40.4474535244086,-79.9441891316783,0.40999999642372104,0.05387878417968799,-0.9285888671875,0.334365844726562,-0.016963803511586998,-0.002018143474062,-0.006565757351481,No
1492638966.9,40.4474535244086,-79.9441891316783,0.40999999642372104,0.069717407226563,-0.9238433837890621,0.325973510742188,-0.020331104393883,-0.009440906064331,0.001948634969611,No
1492638967.1,40.4474535244086,-79.9441891316783,0.40999999642372104,0.026840209960938,-0.9346160888671879,0.354171752929688,-0.017927335193977004,-0.004140682862855,-0.015099857064640001,No
1492638967.3,40.4474654602074,-79.9441897808925,1.4700000286102302,0.065338134765625,-0.94378662109375,0.332443237304688,-0.027828169178565,-0.032795497243781,-0.007663778668921,No
1492638967.5,40.4474654602074,-79.9441897808925,1.4700000286102302,0.120620727539062,-0.8997344970703121,0.317001342773438,-0.05342833778917,-0.036883715833161,-0.006849117691465999,No
1492638967.7,40.4474654602074,-79.9441897808925,1.4700000286102302,0.05137634277343799,-0.9091796875,0.344772338867188,-0.029558158622681,-0.0030021814968459997,-0.020552945712687,No
1492638967.9,40.4474654602074,-79.9441897808925,1.4700000286102302,0.108840942382812,-0.8756561279296879,0.398834228515625,-0.013630324775135,-0.053091980543493,0.033050095443992,No
1492638968.1,40.447487058201496,-79.94419095565459,3.0599999427795397,0.089599609375,-0.93865966796875,0.342697143554688,-0.044044157056058006,-0.038006238232629996,0.0071106401105119985,No
1492638968.3,40.447487058201496,-79.94419095565459,3.0599999427795397,0.04023742675781299,-0.893035888671875,0.395462036132812,0.022392657393712996,-0.01716700270276,-0.011454788480648999,No
1492638968.5,40.447487058201496,-79.94419095565459,3.0599999427795397,0.06181335449218799,-0.947723388671875,0.404266357421875,-0.016959808769952,-0.007337275119276999,-0.009750631699107,No
1492638968.7,40.447487058201496,-79.94419095565459,3.0599999427795397,0.071990966796875,-0.9062957763671879,0.350509643554688,-0.039526903215065,-0.02314526671777,-0.003543602146459,No
1492638968.9,40.447487058201496,-79.94419095565459,3.0599999427795397,0.077072143554688,-0.9186553955078121,0.363677978515625,-0.013965350440267001,-0.022247781430412998,-0.003284210256286,No
1492638969.1,40.447487058201496,-79.94419095565459,3.0599999427795397,0.042266845703125,-0.9343719482421879,0.33038330078125,-0.024864337201416,-0.014727280828138001,0.018975289082924,No
1492638969.4,40.4475265260189,-79.9441931023953,4.78999996185303,0.073501586914063,-0.9299163818359379,0.343215942382812,-0.016026903440097,-0.019043732322939,-0.006512227813571,No
1492638969.5,40.4475265260189,-79.9441931023953,4.78999996185303,0.0333251953125,-0.9322357177734379,0.34979248046875,-0.024844363493240002,-0.029621009224406,0.009418002878956,No
1492638969.7,40.4475265260189,-79.9441931023953,4.78999996185303,0.090957641601563,-0.939727783203125,0.322647094726562,-0.084209153668306,0.051599278752502996,-0.043643883944219,No
1492638969.9,40.4475265260189,-79.9441931023953,4.78999996185303,0.12060546875,-0.916290283203125,0.320571899414062,-0.040509077025086,-0.031650337975047,-0.014193849661795,No
1492638970.1,40.4475811920784,-79.94419607580171,6.48000001907349,0.065841674804688,-0.9373321533203121,0.236480712890625,-0.052171858386869996,0.000339286722876,-0.000535029062997,No
1492638970.3,40.4475811920784,-79.94419607580171,6.48000001907349,0.06866455078125,-0.988800048828125,0.21409606933593803,-0.010554107399984003,-0.014825817788471,-0.014996792730454,No
1492638970.6,40.4475811920784,-79.94419607580171,6.48000001907349,0.022216796875,-0.9211578369140621,0.310745239257812,-0.007725297690102,-0.06482666725470901,0.061928615356484994,No
1492638970.8,40.4475811920784,-79.94419607580171,6.48000001907349,0.055999755859375,-0.981475830078125,0.270980834960938,-0.06307084514802,-0.062351791653697995,-0.016478042928756,No
1492638971.0,40.4475811920784,-79.94419607580171,6.48000001907349,0.115386962890625,-0.9701385498046879,0.299453735351562,-0.023350862753924,-0.023252858425808997,-0.018304705120442,No
1492638971.2,40.4475811920784,-79.94419607580171,6.48000001907349,0.08563232421875,-0.8968048095703121,0.112136840820312,-0.28736413636725605,-0.176828037426863,0.046560045337855,No
1492638971.4,40.4476458405538,-79.9441995921734,7.28999996185303,0.093658447265625,-0.9089813232421879,0.29986572265625,0.067696755961487,-0.034477017156057,0.014642858621583002,No
1492638971.6,40.4476458405538,-79.9441995921734,7.28999996185303,0.04351806640625,-0.9061737060546879,0.2681884765625,-0.045947251971028,-0.015656457732467,0.0027686222692459997,No
1492638971.8,40.4476458405538,-79.9441995921734,7.28999996185303,-0.03639221191406299,-0.9521331787109379,0.379074096679688,-0.000101732753641,-0.09679258981892999,0.032235168150428,No
1492638972.0,40.4476458405538,-79.9441995921734,7.28999996185303,0.070770263671875,-0.905853271484375,0.271804809570312,-0.035494344692467004,-0.033806965825793,0.007187339149906,No
1492638972.2,40.4476458405538,-79.9441995921734,7.28999996185303,0.00543212890625,-0.986602783203125,0.294540405273438,0.035216843306881004,-0.098088217689254,0.018739333010343,No
1492638972.4,40.4477217774981,-79.94420372254959,8.22999954223633,0.100051879882812,-0.89385986328125,0.23313903808593803,-0.027353860188422004,-0.138096620429405,0.0555194518771,No
1492638972.6,40.4477217774981,-79.94420372254959,8.22999954223633,0.090438842773438,-0.9646453857421879,0.298248291015625,0.031195470060861,0.0051124703446250004,-0.019951870254656,No
1492638972.8,40.4477217774981,-79.94420372254959,8.22999954223633,0.00811767578125,-1.01890563964844,0.337371826171875,0.0042357577137709995,-0.04150350137612201,0.056659817455872,No
1492638973.0,40.4477217774981,-79.94420372254959,8.22999954223633,0.12213134765625,-1.00016784667969,0.291824340820312,0.018680477150252,-0.013945376732091003,0.027948810375946,No
1492638973.2,40.4477217774981,-79.94420372254959,8.22999954223633,0.103485107421875,-0.944854736328125,0.357315063476562,-0.010089918421982999,-0.049927612536261,0.009621468386238001,No
1492638973.4,40.4478022024288,-79.9442080970372,9.56999969482422,0.08355712890625,-0.9376373291015621,0.343582153320312,-0.026210032500233,-0.018970495392961,0.03709810030091299,No
1492638973.6,40.4478022024288,-79.9442080970372,9.56999969482422,0.127914428710938,-0.9144439697265621,0.248504638671875,-0.038886945605118996,-0.034846397599251,0.021016069426250998,No
1492638973.8,40.4478022024288,-79.9442080970372,9.56999969482422,0.0909423828125,-0.974761962890625,0.26123046875,-0.025482456890422996,0.094831704308305,-0.031425833495152995,No
1492638974.0,40.4478022024288,-79.9442080970372,9.56999969482422,0.113739013671875,-0.9294891357421879,0.280899047851562,-0.027138410456235,0.016127304613193002,-0.031239678534957002,No
1492638974.2,40.4478022024288,-79.9442080970372,9.56999969482422,0.122283935546875,-0.9726409912109379,0.22462463378906197,0.001843972738771,-0.08616497917285999,0.051419515378922996,No
1492638974.4,40.4478944953294,-79.94421311704959,10.7200002670288,0.04505920410156299,-0.9544830322265621,0.20014953613281197,0.007990548534674,-0.023449666030366002,0.025731462452346,No
1492638974.6,40.4478944953294,-79.94421311704959,10.7200002670288,0.048614501953125,-0.960052490234375,0.228271484375,0.028972263182862997,-0.043794885178025995,0.03772713895039,No
1492638974.8,40.4478944953294,-79.94421311704959,10.7200002670288,0.042388916015625,-0.956451416015625,0.313812255859375,-0.080947580281286,-0.009047557171326,-0.004004062698934,No
1492638975.0,40.4478944953294,-79.94421311704959,10.7200002670288,0.071685791015625,-0.9365997314453121,0.28662109375,-0.035326565543792,-0.011469968498861999,0.007131412767013999,No
1492638975.2,40.4478944953294,-79.94421311704959,10.7200002670288,0.101287841796875,-0.9201812744140621,0.22319030761718803,-0.002516420914016,0.053199039619314,-0.020421119238728,No
1492638975.4,40.447995507657104,-79.9442186113307,11.4300003051758,0.06248474121093799,-0.9144134521484379,0.211669921875,0.036531912253162005,-0.060866280397651996,0.020789168101376997,No
1492638975.6,40.447995507657104,-79.9442186113307,11.4300003051758,0.102279663085938,-0.99810791015625,0.2220458984375,0.05144747857036901,-0.069473883356897,0.015633021914874,No
1492638975.8,40.447995507657104,-79.9442186113307,11.4300003051758,-0.0075225830078130005,-0.874267578125,0.279708862304688,0.044267329955406005,-0.05453701175097,0.003792607708382,No
1492638976.0,40.447995507657104,-79.9442186113307,11.4300003051758,-0.010208129882813,-0.9239349365234379,0.3155517578125,-0.024136495275497005,-0.014728079776465001,0.04350566588364299,No
1492638976.2,40.447995507657104,-79.9442186113307,11.4300003051758,0.1375732421875,-1.02006530761719,0.224853515625,-0.037813159053599,0.09384287259555801,-0.064602162774815,No
1492638976.4,40.4480997553829,-79.94422428159221,11.9499998092651,0.127960205078125,-0.99072265625,0.16168212890625,0.09089049221109599,-0.05164615038768901,0.02238813001986,No
1492638976.6,40.4480997553829,-79.94422428159221,11.9499998092651,0.078125,-0.8851165771484379,0.199798583984375,-0.074615648473513,-0.0686491023673,0.045260422725897004,No
1492638976.8,40.4480997553829,-79.94422428159221,11.9499998092651,0.1104736328125,-1.00247192382812,0.156646728515625,0.027418575002911,0.07321535837234901,-0.018033861637581004,No
1492638977.0,40.4480997553829,-79.94422428159221,11.9499998092651,0.1201171875,-0.968505859375,0.16816711425781197,0.0033566482379359997,0.025507756920778998,0.002100967783964,No
1492638977.2,40.4482092164729,-79.94423023541991,12.130000114440902,0.086029052734375,-0.88226318359375,0.236358642578125,-0.070620640522285,0.010025203607494,-0.04766232771303901,No
1492638977.4,40.4482092164729,-79.94423023541991,12.130000114440902,0.0380859375,-0.928070068359375,0.18220520019531197,-0.027921379816718,-0.006198507437159,0.013590909991001002,No
1492638977.6,40.4482092164729,-79.94423023541991,12.130000114440902,-0.054962158203125,-1.05821228027344,0.17417907714843803,0.008504005992841,-0.09684958146625802,0.02592613952803,No
1492638977.8,40.4482092164729,-79.94423023541991,12.130000114440902,-0.031814575195313,-0.956756591796875,0.162994384765625,0.004653075056585999,-0.013864416634953,-0.03616785813214799,No
1492638978.0,40.4482092164729,-79.94423023541991,12.130000114440902,0.092178344726563,-0.942901611328125,0.16932678222656197,0.011134143885403,-0.034107636712863,0.023658724175937,No
1492638978.2,40.4482092164729,-79.94423023541991,12.130000114440902,0.073455810546875,-0.9514312744140621,0.19599914550781197,0.013985856780659998,0.094574176630894,-0.036352148879582005,No
1492638978.4,40.4483165636199,-79.94423607426559,11.9200000762939,0.085418701171875,-0.9730224609375,0.18238830566406197,-0.0010532802111260001,-0.06806480482413599,0.039614787531038,No
1492638978.6,40.4483165636199,-79.94423607426559,11.9200000762939,0.09393310546875,-0.947174072265625,0.17680358886718803,-0.010561297934927,-0.065876219040309,0.035246937027199,No
1492638978.8,40.4483165636199,-79.94423607426559,11.9200000762939,0.08489990234375,-1.09620666503906,0.19520568847656197,0.073050242384765,0.017602163224878998,-0.03661500287917201,No
1492638979.0,40.4483165636199,-79.94423607426559,11.9200000762939,0.087173461914063,-0.9289703369140621,0.19160461425781197,-0.044508346034058,-0.0029044434848400002,-0.017507621006181,No
1492638979.2,40.4483165636199,-79.94423607426559,11.9200000762939,0.048065185546875,-0.9605255126953121,0.21632385253906197,-0.04080868264772,-0.030581078797380003,0.008190818248648,No
1492638979.4,40.4483816183094,-79.9442396127322,11.710000038147,0.157745361328125,-1.01716613769531,0.125885009765625,0.011526161197863,0.07012635782396699,-0.025652100251861,No
1492638979.6,40.4483816183094,-79.9442396127322,11.710000038147,0.16780090332031197,-1.01300048828125,0.125106811523438,-0.13728462261303997,0.122154139195864,-0.017714015990662,No
1492638979.7,40.4483816183094,-79.9442396127322,11.710000038147,0.091522216796875,-0.891693115234375,0.192901611328125,-0.077038858749376,0.016462596594433998,0.035420042498054,No
1492638979.9,40.4483816183094,-79.9442396127322,11.710000038147,0.16877746582031197,-0.944671630859375,0.105331420898438,-0.019520970790281002,0.11925315782044,-0.064480456312999,No
1492638980.1,40.4483816183094,-79.9442396127322,11.710000038147,0.148529052734375,-0.921600341796875,0.21478271484375,0.04627029341125499,0.012471583384841,0.049487392008069994,No
1492638980.3,40.448523754052204,-79.9442580174709,11.220000267028801,0.119003295898438,-0.9361572265625,0.171295166015625,-0.024811073979614,0.023568975647200997,0.03593642943342,No
1492638980.5,40.448523754052204,-79.9442580174709,11.220000267028801,0.15380859375,-0.9822235107421879,0.147674560546875,0.012104333470518999,0.013758689139676001,0.056597765802473,No
1492638980.7,40.448523754052204,-79.9442580174709,11.220000267028801,0.11700439453125,-0.9417724609375,0.183746337890625,0.005238437864186,0.01592410542202,0.014939534767018,No
1492638980.9,40.448523754052204,-79.9442580174709,11.220000267028801,0.04083251953125,-0.9795684814453121,0.18695068359375,0.030131270889266003,0.12744530764963302,-0.030940605544541,No
1492638981.1,40.448523754052204,-79.9442580174709,11.220000267028801,0.089324951171875,-0.9523468017578121,0.16133117675781197,-0.023913588692258,0.11184903735780198,0.018658372913203998,No
1492638981.3,40.4486223748314,-79.94427272121179,10.9099998474121,0.122894287109375,-0.950958251953125,0.17820739746093803,-0.040832118465313,0.10025576450046901,0.0035880769366639998,No
1492638981.5,40.4486223748314,-79.94427272121179,10.9099998474121,0.11273193359375,-0.9793853759765621,0.152252197265625,-0.05159208821756,0.10031462036055999,-0.065826151611816,No
1492638981.7,40.4486223748314,-79.94427272121179,10.9099998474121,0.073715209960938,-1.00279235839844,0.193023681640625,0.00890161594359,0.22861986272617899,-0.135908034645578,No
1492638981.9,40.4486223748314,-79.94427272121179,10.9099998474121,0.1282958984375,-1.03179931640625,0.170562744140625,-0.034162231515209,0.13317483241882902,-0.07639464008168599,No
1492638982.1,40.4486223748314,-79.94427272121179,10.9099998474121,0.084426879882813,-1.08479309082031,0.16888427734375,0.06181702890681,0.0059801282277730005,-0.00044874264367800003,No
1492638982.3,40.44870555752429,-79.9442936279338,10.5600004196167,0.14166259765625,-0.9578094482421879,0.170196533203125,0.025394306258342,0.1008864010466,-0.01066249805635,No
1492638982.5,40.44870555752429,-79.9442936279338,10.5600004196167,0.16996765136718803,-0.9253082275390621,0.16754150390625,-0.071740766076773,0.136614304966667,-0.052265335341132,No
1492638982.7,40.44870555752429,-79.9442936279338,10.5600004196167,0.138641357421875,-0.936737060546875,0.255996704101562,-0.009777795942226,0.067073576266409,-0.026928553362336,No
1492638983.0,40.44870555752429,-79.9442936279338,10.5600004196167,0.12567138671875,-0.9286346435546879,0.22123718261718803,0.044854024343551,-0.046024749958749,0.043226566601403005,No
1492638983.1,40.44870555752429,-79.9442936279338,10.5600004196167,-0.008834838867188,-1.17503356933594,0.10260009765625,0.133115976558739,0.06614173620099,-0.041456363424827995,No
1492638983.3,40.4488068975034,-79.94433446183251,10.4499998092651,0.04621887207031299,-0.8429718017578121,0.348358154296875,-0.15597681767208801,-0.04365959659465,0.012376508533925,No
1492638983.5,40.4488068975034,-79.94433446183251,10.4499998092651,0.253555297851562,-1.084228515625,0.305450439453125,-0.222279941435137,0.3981822640670879,-0.19202323565852802,No
1492638983.7,40.4488068975034,-79.94433446183251,10.4499998092651,0.21507263183593803,-0.9008636474609379,0.24359130859375,-0.15805088752904198,0.23821363423708103,-0.14830425057157,No
1492638983.9,40.4488068975034,-79.94433446183251,10.4499998092651,0.077346801757813,-0.933807373046875,0.276458740234375,-0.115491176464594,0.036914075869587996,-0.022601981855394,No
1492638984.1,40.4488068975034,-79.94433446183251,10.4499998092651,0.1243896484375,-0.97222900390625,0.242401123046875,-0.092082523115016,0.098450673913613,-0.065169682403111,No
1492638984.3,40.448897325707996,-79.9443717737897,10.9399995803833,0.09326171875,-0.821044921875,0.237457275390625,-0.11372949540350698,0.160284214419182,-0.08367652145028999,No
1492638984.5,40.448897325707996,-79.9443717737897,10.9399995803833,0.124908447265625,-0.8739013671875,0.343856811523438,0.009246495304755,-0.10855257656050199,0.04302336741023,No
1492638984.7,40.448897325707996,-79.9443717737897,10.9399995803833,0.003143310546875,-1.06161499023438,0.26373291015625,-0.010181531163482,-0.12330409215456,0.131358290239286,No
1492638984.9,40.448897325707996,-79.9443717737897,10.9399995803833,0.011642456054688001,-0.974578857421875,0.20188903808593803,-0.10726493817344801,0.015587748176343001,-0.012866796490609,No
1492638985.1,40.448897325707996,-79.9443717737897,10.9399995803833,-0.0009765625,-0.913421630859375,0.20179748535156197,0.022828883180267996,-0.003332946104234,0.041824678603585,No
1492638985.3,40.4489954136115,-79.9444122462471,11.4099998474121,-0.003616333007813,-0.920196533203125,0.344863891601562,-0.109679360017714,-0.006733270184046999,-0.004304200953785999,No
1492638985.5,40.4489954136115,-79.9444122462471,11.4099998474121,0.125396728515625,-0.959197998046875,0.23551940917968803,0.04497706238591201,-0.008806008460455999,-0.022973492827459998,No
1492638985.7,40.4489954136115,-79.9444122462471,11.4099998474121,0.034698486328125,-0.949493408203125,0.22282409667968803,-0.062792811130215,0.06314807681963201,-0.123420472294196,No
1492638985.9,40.4489954136115,-79.9444122462471,11.4099998474121,0.018402099609375,-0.9813995361328121,0.20135498046875,-0.014621287016753,-0.0009720537978789999,-0.021471469972655,No
1492638986.1,40.4490947752844,-79.9444537892614,11.8400001525879,0.12408447265625,-0.863555908203125,0.202728271484375,0.032472722119663,-0.022544990208066003,0.027045998766409,No
1492638986.3,40.4490947752844,-79.9444537892614,11.8400001525879,0.0794677734375,-0.9744415283203121,0.274246215820312,-0.002606435758861,0.13616556232298802,-0.04622528598883201,No
1492638986.5,40.4490947752844,-79.9444537892614,11.8400001525879,0.067947387695313,-0.935577392578125,0.192230224609375,-0.017956629965968002,0.042667569088596,0.012500611840722998,No
1492638986.7,40.4490947752844,-79.9444537892614,11.8400001525879,-0.04252624511718799,-0.9928436279296879,0.285858154296875,0.023400131234090002,0.043464386886747,0.025716548750241004,No
1492638986.9,40.4490947752844,-79.9444537892614,11.8400001525879,-0.104904174804688,-0.8931121826171879,0.312393188476562,0.019286346298244997,-0.005445898113103,-0.011516840134048,No
1492638987.1,40.4490947752844,-79.9444537892614,11.8400001525879,0.096923828125,-0.987396240234375,0.20487976074218803,0.025476331619916,0.005154281973739,0.008777246320683,No
1492638987.3,40.4491986437395,-79.94449733868571,12.2399997711182,0.061859130859375,-0.9347686767578121,0.289657592773438,-0.002636263163069,0.025542111698841,-0.026748257356537998,No
1492638987.5,40.4491986437395,-79.94449733868571,12.2399997711182,0.130783081054688,-0.9511871337890621,0.18681335449218803,0.012770922691366001,-0.037303962653176,0.057802579879625005,No
1492638987.7,40.4491986437395,-79.94449733868571,12.2399997711182,0.037200927734375,-0.94805908203125,0.28009033203125,-0.060568538987780994,0.018477277959079,0.00039840889907599995,No
1492638987.9,40.4491986437395,-79.94449733868571,12.2399997711182,-0.005081176757813,-0.8770904541015621,0.194976806640625,-0.037363617461594,0.070443273993686,-0.032550752739603,No
1492638988.1,40.4491986437395,-79.94449733868571,12.2399997711182,-0.06231689453125,-1.02424621582031,0.16560363769531197,0.0075724322435310005,-0.08301552486773199,0.023748472704672997,No
1492638988.3,40.4493065270671,-79.944542571445,12.460000038147,-0.093917846679688,-0.8712615966796879,0.24798583984375,-0.070212111611067,-0.08781560641649098,0.101864313798877,No
1492638988.5,40.4493065270671,-79.944542571445,12.460000038147,-0.134674072265625,-0.9529266357421879,0.223480224609375,-0.071358868776455,-0.062288142103645,0.044211137256405,No
1492638988.7,40.4493065270671,-79.944542571445,12.460000038147,-0.135345458984375,-0.9906463623046879,0.220611572265625,-0.014590128031998998,0.05326934707209201,-0.07172318921357801,No
1492638988.9,40.4493065270671,-79.944542571445,12.460000038147,-0.133102416992188,-1.01411437988281,0.1566162109375,0.033986995515482,-0.09275923234800501,0.033639985625445,No
1492638989.1,40.4493065270671,-79.944542571445,12.460000038147,-0.15458679199218803,-0.8741607666015621,0.22038269042968803,0.13472239532827399,-0.111494304300603,0.054977764911378,No
1492638989.3,40.449408681765,-79.9445854023342,12.359999656677198,-0.0439453125,-0.98980712890625,0.21281433105468803,-0.027893416625272,-0.02002856929405,0.004030960625944,No
1492638989.5,40.449408681765,-79.9445854023342,12.359999656677198,-0.149749755859375,-0.976348876953125,0.22041320800781197,-0.07671714888969501,-0.117571105275946,0.016577378837416,No
1492638989.7,40.449408681765,-79.9445854023342,12.359999656677198,-0.165008544921875,-1.0341796875,0.14906311035156197,0.08644780688062599,-0.09948664357765401,0.009671535814732,No
1492638989.9,40.449408681765,-79.9445854023342,12.359999656677198,-0.065994262695313,-0.967742919921875,0.23402404785156197,-0.024109331032377997,-0.060484915729553,-0.06086494881710701,No
1492638990.2,40.4495115838199,-79.94462854657141,12.1700000762939,0.04231262207031299,-0.9717864990234379,0.194488525390625,-0.042555450006703,0.035369708753451,-0.06130117460366201,No
1492638990.3,40.4495115838199,-79.94462854657141,12.1700000762939,0.064743041992188,-0.89288330078125,0.217864990234375,-0.080698574719363,0.026053704944245002,-0.0030258836305479997,No
1492638990.5,40.4495115838199,-79.94462854657141,12.1700000762939,0.130233764648438,-0.919891357421875,0.260528564453125,0.013875335595421999,-0.000103064334186,-0.079823726301272,No
1492638990.7,40.4495115838199,-79.94462854657141,12.1700000762939,0.2694091796875,-1.06512451171875,0.268661499023438,0.08492101662768402,0.144079411818268,-0.21167896239996697,No
1492638990.9,40.4495115838199,-79.94462854657141,12.1700000762939,0.312026977539062,-0.9240264892578121,0.326324462890625,0.056130647347273,-0.051412058527871,0.072143702349702,No
1492638991.1,40.4495115838199,-79.94462854657141,12.1700000762939,0.085159301757813,-1.02902221679688,0.290023803710938,-0.118987108027541,0.12096903251077801,-0.032450617882616,No
1492638991.3,40.4496182633568,-79.9446732746114,12.140000343322802,0.075881958007813,-1.03836059570312,0.22578430175781197,0.062298528431897,-0.059972523535821,0.006123672610528001,No
1492638991.5,40.4496182633568,-79.9446732746114,12.140000343322802,-0.007537841796875,-0.947540283203125,0.3577880859375,0.102746885384129,0.031239944851066,-0.020352942314821997,No
1492638991.7,40.4496182633568,-79.9446732746114,12.140000343322802,0.221893310546875,-0.8498077392578121,0.243743896484375,-0.13906521211786702,0.129608327086995,-0.039075763726406,No
1492638991.9,40.4496182633568,-79.9446732746114,12.140000343322802,0.02044677734375,-1.0196533203125,0.297927856445312,-0.015980298121021003,-0.026491262311345003,-0.013956029376451,No
1492638992.1,40.4496182633568,-79.9446732746114,12.140000343322802,-0.014907836914063001,-0.9490814208984379,0.315643310546875,0.0035723642862320005,0.007419034164742999,-0.023439279702113996,No
1492638992.3,40.4497272925644,-79.9447189878092,12.7399997711182,0.093551635742188,-0.9573211669921879,0.24638366699218803,-0.036378780490482,0.001290035232034,-0.06434862983904001,No
1492638992.5,40.4497272925644,-79.9447189878092,12.7399997711182,0.009109497070313,-1.05123901367188,0.20402526855468803,-0.008994027633416,0.004306864114876,-0.040619331894216,No
1492638992.7,40.4497272925644,-79.9447189878092,12.7399997711182,0.085586547851563,-0.9853363037109379,0.16975402832031197,-0.04271577230432601,-0.01461409648181,0.000666589220847,No
1492638992.9,40.4497272925644,-79.9447189878092,12.7399997711182,0.14247131347656197,-0.9938507080078121,0.188018798828125,-0.05569122576741001,0.121615648023449,-0.065923090675494,No
1492638993.1,40.4497272925644,-79.9447189878092,12.7399997711182,0.16650390625,-0.8287200927734379,0.25225830078125,-0.003183010134863,0.034050112433317,-0.059828446520848004,No
1492638993.3,40.449836364057,-79.9447647187361,12.630000114440902,0.14775085449218803,-0.9349212646484379,0.19831848144531197,-0.08633515516651599,-0.005820338562368,0.002329733321601,No
1492638993.5,40.449836364057,-79.9447647187361,12.630000114440902,0.065841674804688,-0.9463958740234379,0.15351867675781197,0.0034977957757100003,0.016994696180232,-0.012802614308338003,No
1492638993.7,40.449836364057,-79.9447647187361,12.630000114440902,0.14048767089843803,-0.907135009765625,0.239288330078125,-0.073007898123432,0.09407243708152302,-0.060698234932867995,No
1492638993.9,40.449836364057,-79.9447647187361,12.630000114440902,0.087936401367188,-0.9600830078125,0.20623779296875,0.044733383146169994,0.011410846322663001,0.005759618489514,No
1492638994.1,40.449836364057,-79.9447647187361,12.630000114440902,0.065994262695313,-0.984161376953125,0.17462158203125,-0.10128081520404,0.052774531741555,-0.040623060319742006,No
1492638994.3,40.4499386068649,-79.94480758656759,12.210000038147,0.095504760742188,-1.02592468261719,0.13941955566406197,-0.046298256602700996,0.036464267961474,-0.020826186040529,No
1492638994.5,40.4499386068649,-79.94480758656759,12.210000038147,0.030319213867188,-0.88714599609375,0.1610107421875,-0.051593153481995994,-0.050721767173322004,0.007066165320306999,No
1492638994.7,40.4499386068649,-79.94480758656759,12.210000038147,0.118423461914062,-1.01243591308594,0.13902282714843803,-0.055101069269848,0.037588654573705,0.000405066801801,No
1492638994.9,40.4499386068649,-79.94480758656759,12.210000038147,0.03504943847656299,-0.966522216796875,0.23054504394531197,-0.016140087786425,-0.036062663269089995,-0.007535680620488001,No
1492638995.1,40.4499386068649,-79.94480758656759,12.210000038147,0.125625610351562,-1.03756713867188,0.14555358886718803,0.016845825475296002,0.063708938545203,-0.028779716636049998,No
1492638995.3,40.450035229163106,-79.94484809786108,11.6899995803833,0.074432373046875,-1.04583740234375,0.11224365234375,0.087748228440912,-0.050562510140135,0.019154519824286,No
1492638995.5,40.450035229163106,-79.94484809786108,11.6899995803833,0.035675048828125,-0.906280517578125,0.05046081542968799,-0.049313753904996996,-0.04966209537558001,0.074258252255224,No
1492638995.8,40.450035229163106,-79.94484809786108,11.6899995803833,0.110443115234375,-1.00871276855469,0.035064697265625,-0.018870094219865,-0.036037895870952005,0.036151080217281,No
1492638995.9,40.450035229163106,-79.94484809786108,11.6899995803833,0.03504943847656299,-0.9050750732421879,0.03916931152343799,-0.031626902157454,-0.039146603811401996,0.032829852021843,No
1492638996.1,40.450035229163106,-79.94484809786108,11.6899995803833,0.084243774414063,-0.9520111083984379,0.0064697265625,-0.093476155313454,0.0527196706231,-0.066132148821066,No
1492638996.3,40.4501334446522,-79.94488927713941,10.3800001144409,0.2232666015625,-1.0179443359375,0.0782470703125,0.059747220107600994,-0.18120068162066397,0.125826372022974,No
1492638996.5,40.4501334446522,-79.94488927713941,10.3800001144409,0.15802001953125,-1.03974914550781,0.05345153808593799,-0.11355186255879901,0.21452295212806302,-0.1445888745348,No
1492638996.7,40.4501334446522,-79.94488927713941,10.3800001144409,-0.065719604492188,-1.01611328125,0.1380615234375,0.021994781126855,-0.158621869266755,0.09552758830114201,No
1492638996.9,40.4501334446522,-79.94488927713941,10.3800001144409,0.103286743164062,-0.9837493896484379,0.07373046875,-0.07688306382560699,-0.015454590121839,0.006716225953071,No
1492638997.1,40.4501334446522,-79.94488927713941,10.3800001144409,-0.019485473632813,-0.9388275146484379,0.077178955078125,-0.008206797215188,-0.045681734810347,0.029887857965632002,No
1492638997.3,40.4502126801874,-79.9449224986015,8.78999996185303,0.122970581054688,-1.00759887695312,0.00244140625,-0.035804070327243,0.060865481449325,0.0037412086993430004,No
1492638997.5,40.4502126801874,-79.9449224986015,8.78999996185303,0.103927612304688,-0.9045257568359379,0.04216003417968799,-0.033698575169427,0.022554843904099,-0.015330220498931998,No
1492638997.7,40.4502126801874,-79.9449224986015,8.78999996185303,0.078384399414063,-0.99462890625,0.021224975585938,-0.007568970134114001,0.013880129285384,0.015879896947925,No
1492638997.9,40.4502126801874,-79.9449224986015,8.78999996185303,0.0206298828125,-0.973052978515625,0.022537231445313,-0.029402363698911,0.04699414059553799,-0.004687163518539001,No
1492638998.1,40.450278386987904,-79.9449500478063,7.09000015258789,0.063705444335938,-0.956878662109375,0.015289306640625,-0.0037734329485329997,-0.024436367214240005,0.028812207201349,No
1492638998.3,40.450278386987904,-79.9449500478063,7.09000015258789,0.04661560058593799,-0.9479827880859379,0.117355346679688,-0.080873011770763,-0.006921289357007,-0.008273642558549,No
1492638998.5,40.450278386987904,-79.9449500478063,7.09000015258789,0.104263305664062,-0.997589111328125,0.004470825195313,-0.036312201463230005,0.060862285656017,-0.03678011886675701,No
1492638998.7,40.450278386987904,-79.9449500478063,7.09000015258789,0.05705261230468799,-0.986968994140625,0.03790283203125,-0.014561898524443999,-0.039257923944967,0.030872428620634995,No
1492638998.9,40.450278386987904,-79.9449500478063,7.09000015258789,0.080642700195313,-1.00306701660156,-0.0235595703125,-0.011529623307280001,-0.0009909622416179999,-0.013976269400736001,No
1492638999.1,40.450278386987904,-79.9449500478063,7.09000015258789,0.0037841796875,-1.00762939453125,-0.027450561523438,-0.017479125182517,-0.0413698106894,0.009523730374232,No
1492638999.3,40.4503305018491,-79.9449718982536,5.269999980926509,0.06591796875,-1.03413391113281,-0.04164123535156299,-0.035161449556207,0.0066118300383399995,0.004954012259765,No
1492638999.5,40.4503305018491,-79.9449718982536,5.269999980926509,0.00927734375,-0.9898834228515621,0.009857177734375,-0.039664056011204,-0.019951337622438,0.008175105598216,No
1492638999.7,40.4503305018491,-79.9449718982536,5.269999980926509,0.032806396484375,-1.03297424316406,-0.029190063476563,-0.015176556104035,-0.010536264220681,0.013732590160993999,No
1492638999.9,40.4503305018491,-79.9449718982536,5.269999980926509,0.04365539550781299,-1.00077819824219,0.011398315429688001,-0.024407605074467,0.001221591992019,-0.005584116173678001,No
1492639000.1,40.4503305018491,-79.9449718982536,5.269999980926509,0.028335571289063,-1.01445007324219,0.05424499511718799,0.003332679788125,-0.012789032186779,-0.016992299335251,No
1492639000.3,40.4503588166809,-79.9449837699487,2.91000008583069,0.049835205078125,-0.999237060546875,0.084075927734375,-0.008484564916883,-0.005264270526760001,-0.005404352800098,No
1492639000.5,40.4503588166809,-79.9449837699487,2.91000008583069,0.071136474609375,-0.9635162353515621,0.127273559570312,-0.021238709693382,-0.004117779677481,-0.006604106871179,No
1492639000.7,40.4503588166809,-79.9449837699487,2.91000008583069,0.05619812011718799,-0.983245849609375,0.15045166015625,-0.023277625823947,0.000149669653262,-0.010900850973911998,No
1492639000.9,40.4503588166809,-79.9449837699487,2.91000008583069,0.078857421875,-0.982391357421875,0.136703491210938,-0.0023984428777249996,-0.020193685281635,0.008557269214643,No
1492639001.1,40.4503588166809,-79.9449837699487,2.91000008583069,0.06089782714843799,-0.984130859375,0.12200927734375,-0.0032474586332429996,-0.014871624159221,-0.0042597261635820005,No
1492639001.3,40.4503787414209,-79.9449921238898,1.36000001430511,0.070068359375,-0.9794769287109379,0.127349853515625,-0.016105466692254,-0.015850868492043,0.0009422263936699999,No
1492639001.5,40.4503787414209,-79.9449921238898,1.36000001430511,0.07073974609375,-0.984893798828125,0.128189086914062,-0.009605223103589001,-0.001001082253761,0.000970455901225,No
1492639001.7,40.4503787414209,-79.9449921238898,1.36000001430511,0.06068420410156299,-0.9787445068359379,0.124893188476562,-0.019143867179926003,-0.00093956323258,-0.002326004896075,No
1492639001.9,40.4503787414209,-79.9449921238898,1.36000001430511,0.070144653320313,-0.9781494140625,0.132049560546875,-0.010673949649038,-0.007376956219519,-0.0022226742457800005,No
1492639002.1,40.4503787414209,-79.9449921238898,1.36000001430511,0.072784423828125,-0.9762115478515621,0.150604248046875,-0.018055166926301002,0.002244512166719,-0.002323075418876,No
1492639002.3,40.4503843067339,-79.9449944572852,0.419999986886978,0.083328247070313,-0.9524993896484379,0.2322998046875,-0.005384911724140001,-0.004219512431122,0.002088184610731,No
1492639002.5,40.4503843067339,-79.9449944572852,0.419999986886978,0.073348999023438,-0.9610748291015621,0.24772644042968803,-0.012748818454318,-0.0020450414010720003,-0.0033238913565279997,No
1492639002.7,40.4503843067339,-79.9449944572852,0.419999986886978,0.088043212890625,-0.9500732421875,0.25103759765625,-0.010688597035033002,-0.00737668990341,-0.001156610861421,No
1492639002.9,40.4503843067339,-79.9449944572852,0.419999986886978,0.084121704101563,-0.9541473388671879,0.24147033691406197,-0.019182483015732,-0.004130296534604,-0.001251952028446,No
1492639003.1,40.4503843067339,-79.9449944572852,0.419999986886978,0.083633422851563,-0.9504547119140621,0.24797058105468803,-0.015928366479764002,-0.002024535060678,-0.004422711622295,No
1492639003.3,40.45038512164721,-79.9449947989578,0.159999996423721,0.069961547851563,-0.9525146484375,0.24256896972656197,-0.016040219245546997,-0.005213936782157,0.0019816581671279997,No
1492639003.5,40.45038512164721,-79.9449947989578,0.159999996423721,0.0791015625,-0.9491729736328121,0.230316162109375,-0.018186993400259997,-0.009455020818108,0.0009044095061910001,No
1492639003.7,40.45038512164721,-79.9449947989578,0.159999996423721,0.087310791015625,-0.93341064453125,0.316787719726562,-0.0073039856056510005,0.004301005160478,-0.008615592442514999,No
1492639003.9,40.45038512164721,-79.9449947989578,0.159999996423721,0.0816650390625,-0.9167633056640621,0.363189697265625,0.009670470550295998,-6.391586616190171e-05,-0.006298109661928001,No
1492639004.1,40.45038512164721,-79.9449947989578,0.159999996423721,0.094924926757813,-0.92095947265625,0.352005004882812,-0.017022393055568998,-0.002017078209626,-0.0023015038140459998,No
1492639004.3,40.4503887565397,-79.94499632297659,0.44999998807907104,0.093841552734375,-0.9060821533203121,0.373367309570312,-0.026716832055675002,-0.0051441619615969995,0.004004595331152,No
1492639004.5,40.4503887565397,-79.94499632297659,0.44999998807907104,0.07940673828125,-0.8812255859375,0.444091796875,-0.009784986477169001,0.004321245184763,0.016948090861155,No
1492639004.7,40.4503887565397,-79.94499632297659,0.44999998807907104,0.146759033203125,-0.821807861328125,0.43017578125,0.019063439715005,-0.07351336609832901,0.045165880507199004,No
1492639004.9,40.4503887565397,-79.94499632297659,0.44999998807907104,0.18571472167968803,-0.89691162109375,0.510513305664062,0.00143890593697,0.024453944077435,-0.013909157741266,No
1492639005.1,40.4503887565397,-79.94499632297659,0.44999998807907104,0.129135131835938,-0.8337249755859379,0.533721923828125,-0.06391906195521,-0.048506816094703,0.052781455960389,No
1492639005.3,40.4504020356953,-79.9450018905918,2.22000002861023,-0.070068359375,-0.9772491455078121,0.472625732421875,-0.027025758742124,-0.065775817867213,-0.006504238330301,No
1492639005.5,40.4504020356953,-79.9450018905918,2.22000002861023,0.01446533203125,-0.8336334228515621,0.503341674804688,0.046406647259067,-0.010947189976879998,-0.050674895538137005,No
1492639005.7,40.4504020356953,-79.9450018905918,2.22000002861023,0.10015869140625,-0.890869140625,0.452682495117188,-0.01535765105816,-0.042447325666446,0.009548231456261,No
1492639005.9,40.4504020356953,-79.9450018905918,2.22000002861023,-0.029006958007813,-0.9171295166015621,0.417129516601562,-0.031690019075289,-0.074238811179267,0.095826394975449,No
1492639006.1,40.4504020356953,-79.9450018905918,2.22000002861023,0.092788696289063,-0.9787750244140621,0.292327880859375,0.020565995202028,0.038147119454295,-0.080920149722058,No
1492639006.3,40.450440957404496,-79.9450182094831,4.76000022888184,0.21058654785156197,-0.838226318359375,0.394882202148438,0.129960130666995,-0.096564090597401,0.099671466957306,No
1492639006.5,40.450440957404496,-79.9450182094831,4.76000022888184,0.24436950683593803,-0.885040283203125,0.302322387695312,-0.008103732881002,0.053238454403446996,-0.001286573122617,No
1492639006.7,40.450440957404496,-79.9450182094831,4.76000022888184,0.094894409179688,-0.882476806640625,0.402816772460938,-0.06114298283491099,-0.07298765809914799,0.069932479696609,No
1492639006.9,40.450440957404496,-79.9450182094831,4.76000022888184,0.111114501953125,-0.8211212158203121,0.466140747070312,-0.084300766409804,-0.033479130695604,0.071725852374668,No
1492639007.1,40.450438171097396,-79.9450170412548,6.69000005722046,0.05274963378906299,-0.8583831787109379,0.424774169921875,-0.10556024875968902,0.0038796930760270003,0.011703794042571,No
1492639007.3,40.450438171097396,-79.9450170412548,6.69000005722046,0.016952514648438,-0.91766357421875,0.354568481445312,-0.057351440390965,-0.09428309312374801,0.09241674983182101,No
1492639007.5,40.450438171097396,-79.9450170412548,6.69000005722046,-0.0841064453125,-0.929718017578125,0.310775756835938,-0.019908993361105,0.033103891298012,-0.005620335164503,No
1492639007.7,40.450438171097396,-79.9450170412548,6.69000005722046,-0.064315795898438,-1.18617248535156,0.16600036621093803,-0.005524727681369,-0.06379043127455901,-0.020150009439758,No
1492639007.9,40.450438171097396,-79.9450170412548,6.69000005722046,-0.008712768554688,-1.04437255859375,0.19120788574218803,0.08800655506664999,-0.070779631239363,-0.010644654877047,No
1492639008.1,40.450438171097396,-79.9450170412548,6.69000005722046,0.023208618164063,-0.987823486328125,0.236114501953125,-0.012236692576696002,-0.042466766742404,0.014911305259463,No
1492639008.3,40.450442581435794,-79.9450188903985,7.92999982833862,0.13850402832031197,-1.02325439453125,0.17097473144531197,0.058974903391478,0.06981077323479201,-0.068880264749918,No
1492639008.5,40.450442581435794,-79.9450188903985,7.92999982833862,0.113555908203125,-0.958953857421875,0.19337463378906197,-0.032412800995136,0.001267664678878,-0.042983686309987994,No
1492639008.8,40.450442581435794,-79.9450188903985,7.92999982833862,0.104217529296875,-1.02751159667969,0.21598815917968803,0.020258400096124,0.073258501582009,-0.03943156204804,No
1492639008.9,40.450442581435794,-79.9450188903985,7.92999982833862,0.247711181640625,-0.8846282958984379,0.378021240234375,-0.014573616433241001,0.17772259323702105,-0.08270633186517401,No
1492639009.1,40.450442581435794,-79.9450188903985,7.92999982833862,0.17076110839843803,-0.9514923095703121,0.358688354492188,-0.031206921653549,0.109766978017578,0.005794505899794001,No
1492639009.4,40.450625080217,-79.94509743697809,7.800000190734861,0.076766967773438,-0.9117889404296879,0.402633666992188,-0.025685389765487,0.01187050792681,0.015699600942126,No
1492639009.5,40.450625080217,-79.94509743697809,7.800000190734861,0.18934631347656197,-0.896484375,0.383102416992188,-0.0038227014287,-0.021244036015562,0.034134534639872996,No
1492639009.8,40.450625080217,-79.94509743697809,7.800000190734861,0.127716064453125,-0.9136810302734379,0.3966064453125,0.025337048294905,0.067909276216476,-0.024438764059220998,No
1492639010.0,40.450625080217,-79.94509743697809,7.800000190734861,0.17530822753906197,-0.86297607421875,0.407440185546875,-0.046566703240580994,0.091774928009112,-0.048693237371009,No
1492639010.1,40.4506969997767,-79.94512839227109,8.920000076293949,0.0953369140625,-0.9240875244140621,0.487228393554688,-0.065165953977585,0.106782639700035,-0.081975027829838,No
1492639010.4,40.4506969997767,-79.94512839227109,8.920000076293949,0.24116516113281197,-0.8125762939453121,0.392959594726562,-0.075781314082641,0.15791426736512,-0.05662652794224599,No
1492639010.6,40.4506969997767,-79.94512839227109,8.920000076293949,0.007888793945313001,-1.01193237304688,0.445465087890625,0.12070111850511599,-0.070976172527811,0.089914709987691,No
1492639010.8,40.4506969997767,-79.94512839227109,8.920000076293949,-0.15484619140625,-0.8926849365234379,0.381790161132812,-0.075175711250757,-0.011205516602617,0.039775376144769996,No
1492639011.0,40.4506969997767,-79.94512839227109,8.920000076293949,-0.08392333984375,-0.936767578125,0.409683227539062,-0.04745806325743,-0.049683400664300006,0.016701748460323,No
1492639011.2,40.4506969997767,-79.94512839227109,8.920000076293949,-0.068496704101563,-0.9365997314453121,0.3653564453125,0.026342125290301003,-0.10653682993142098,0.039994554302483,No
1492639011.4,40.450784826961005,-79.9451661944522,10.3500003814697,-0.12347412109375,-0.876251220703125,0.357223510742188,0.00347622417088,-0.182964226894515,0.112460232827975,No
1492639011.6,40.450784826961005,-79.9451661944522,10.3500003814697,-0.072601318359375,-0.93011474609375,0.390365600585938,-0.099691174349372,-0.100405966785949,-0.007158843326241999,No
1492639011.8,40.450784826961005,-79.9451661944522,10.3500003814697,0.013275146484375,-0.8793182373046879,0.333709716796875,-0.011709919313078002,-0.129696477719077,0.006612096354449,No
1492639012.0,40.450784826961005,-79.9451661944522,10.3500003814697,0.054840087890625,-0.99859619140625,0.363983154296875,-0.024025974090259,-0.060473996769083,0.010572216895397,No
1492639012.2,40.450784826961005,-79.9451661944522,10.3500003814697,-0.0066375732421880005,-0.9797210693359379,0.370513916015625,-0.01955612451667,0.035225099106260004,-0.030145119326934,No
1492639012.3,40.4508858516938,-79.94520967706279,11.8999996185303,-0.06056213378906299,-0.863616943359375,0.425277709960938,-0.087592433517142,0.04204918308347899,-0.035124165300945996,No
1492639012.6,40.4508858516938,-79.94520967706279,11.8999996185303,0.107147216796875,-1.04658508300781,0.322601318359375,-0.023858993889910998,0.011849735270308,-0.039724776084058,No
1492639012.7,40.4508858516938,-79.94520967706279,11.8999996185303,0.17503356933593803,-0.88909912109375,0.245574951171875,-0.091982654574138,0.09419361091112201,-0.074753600217979,No
1492639012.9,40.4508858516938,-79.94520967706279,11.8999996185303,0.121337890625,-0.9173736572265621,0.265960693359375,0.016896691852117,-0.074562651567821,0.047278832516067994,No
1492639013.1,40.4508858516938,-79.94520967706279,11.8999996185303,0.077102661132813,-0.9216156005859379,0.21662902832031197,-0.06099863950382901,-0.001727326283025,0.020704213262603,No
1492639013.3,40.450990805581604,-79.9452548508425,12.630000114440902,0.06211853027343799,-0.974090576171875,0.1917724609375,-0.046181077514737,0.024760207602793998,-0.03572177864956,No
1492639013.5,40.450990805581604,-79.9452548508425,12.630000114440902,0.03846740722656299,-0.99542236328125,0.105545043945312,0.031653001136137,-0.05232925120729401,-0.007004379983016998,No
1492639013.7,40.450990805581604,-79.9452548508425,12.630000114440902,0.04264831542968799,-0.961395263671875,0.173797607421875,0.034050911381644,-0.072547970203176,0.039985765870886,No
1492639013.9,40.450990805581604,-79.9452548508425,12.630000114440902,0.087722778320313,-1.00570678710938,0.17686462402343803,-0.032943302684279994,-0.043390351008443004,0.048820536471115,No
1492639014.1,40.450990805581604,-79.9452548508425,12.630000114440902,0.084564208984375,-0.913726806640625,0.110748291015625,0.017635719054614,-0.0054283212499090005,0.031114776279831998,No
1492639014.3,40.451095546759205,-79.9452999330685,12.130000114440902,0.053619384765625,-1.07435607910156,0.090286254882813,-0.095369662848501,-0.012138421932472,0.036372388903865994,No
1492639014.5,40.451095546759205,-79.9452999330685,12.130000114440902,-0.03173828125,-1.01448059082031,0.063613891601563,-0.000284958236638,-0.01063293696825,0.014951518991922999,No
1492639014.7,40.451095546759205,-79.9452999330685,12.130000114440902,0.065643310546875,-0.9766998291015621,0.05595397949218799,-0.07864581015113001,0.048368864350237,-0.06277044057705901,No
1492639014.9,40.451095546759205,-79.9452999330685,12.130000114440902,0.1029052734375,-1.1641845703125,0.023834228515625,-0.004693821421265,0.011725099331292,-0.039528234795610004,No
1492639015.1,40.451095546759205,-79.9452999330685,12.130000114440902,0.074905395507813,-0.9099273681640621,-0.10101318359375,0.048363804344166,-0.033285518884355,0.027236414784349,No
1492639015.3,40.4511881203787,-79.94533977818891,10.3800001144409,0.077606201171875,-1.04483032226562,-0.048614501953125,0.014691860785639999,-0.038390266061819,-0.00508157767598,No
1492639015.5,40.4511881203787,-79.94533977818891,10.3800001144409,0.101394653320312,-1.02633666992188,-0.136032104492188,-0.014271613965626,-0.020114589397259998,0.020163857877426004,No
1492639015.7,40.4511881203787,-79.94533977818891,10.3800001144409,-0.013534545898438001,-1.00294494628906,-0.04405212402343799,-0.02177080927918,0.027793814400503,-0.028016188351525004,No
1492639015.9,40.4511881203787,-79.94533977818891,10.3800001144409,0.05842590332031299,-1.04362487792969,-0.070571899414063,0.015058045435526001,0.020112725184496003,0.000102265385859,No
1492639016.1,40.4511881203787,-79.94533977818891,10.3800001144409,-0.015274047851563001,-1.00263977050781,-0.062942504882813,-0.04801146813194901,-0.005005677584913,0.003786216121766,No
1492639016.3,40.4512582350036,-79.94536995661,7.800000190734861,0.02227783203125,-1.02168273925781,-0.120223999023438,-0.046203714384003,0.035398737209333,-0.02828596656995,No
1492639016.5,40.4512582350036,-79.94536995661,7.800000190734861,0.05302429199218799,-1.05442810058594,-0.131973266601562,-0.015980298121021003,0.008614527178079,0.005145227226033,No
1492639016.7,40.4512582350036,-79.94536995661,7.800000190734861,0.025039672851563,-1.04426574707031,-0.17431640625,-0.018438662123272997,-0.013705692233984,0.016906012915932,No
1492639016.9,40.4512582350036,-79.94536995661,7.800000190734861,0.03599548339843799,-1.01951599121094,-0.144134521484375,-0.03193662779223,-0.014685735515133,-0.008818791633687999,No
1492639017.1,40.4512582350036,-79.94536995661,7.800000190734861,0.026214599609375,-1.05097961425781,-0.13813781738281197,0.009541307237426999,0.004193679768548,0.005417934921657001,No
1492639017.3,40.4513059637219,-79.94539049979,5.01000022888184,0.015396118164063001,-1.01126098632812,-0.089080810546875,-0.027889421883637,-0.025347700939265,0.0008460862783180001,No
1492639017.5,40.4513059637219,-79.94539049979,5.01000022888184,0.04487609863281299,-0.9958343505859379,-0.073486328125,0.007290669800201001,-0.013875069279312998,0.0043753073548909996,No
1492639017.7,40.4513059637219,-79.94539049979,5.01000022888184,0.104766845703125,-0.993896484375,0.067306518554688,-0.040742902568794995,0.043872116849638,-0.033582993978117,No
1492639017.9,40.4513059637219,-79.94539049979,5.01000022888184,0.069107055664063,-0.9534454345703121,0.14518737792968803,-0.012598349852728997,0.004335093622431,-0.010802314013579001,No
1492639018.1,40.4513059637219,-79.94539049979,5.01000022888184,0.07464599609375,-0.9627532958984379,0.1578369140625,-0.0034392062317279994,-0.016995761444668002,0.008538360770903001,No
1492639018.3,40.4513207435429,-79.945396861254,1.1599999666214,0.068618774414063,-0.9631500244140621,0.24995422363281197,-0.008616391390841999,-0.005261873681779,0.004190217659131,No
1492639018.5,40.4513207435429,-79.945396861254,1.1599999666214,0.06129455566406299,-0.946502685546875,0.264022827148438,-0.01169074455323,-0.000988032764419,-0.0022495721727900002,No
1492639018.7,40.4513207435429,-79.945396861254,1.1599999666214,0.081512451171875,-0.9230804443359379,0.404937744140625,0.023420104942266002,-0.006535130998945,-0.0029419940562109997,No
1492639018.9,40.4513207435429,-79.945396861254,1.1599999666214,0.098526000976563,-0.903717041015625,0.4544677734375,-0.014894261028485999,-0.004158526042159,-0.0033404029552859997,No
1492639019.1,40.4513207435429,-79.945396861254,1.1599999666214,0.05335998535156299,-0.923919677734375,0.473037719726562,-0.011923771148611999,-0.010558102141619,0.009501093504967,No
1492639019.3,40.4513248306478,-79.94539862040729,0.550000011920929,0.026885986328125,-0.8754730224609379,0.618545532226562,0.023739684273075,0.024309600746352,-0.009415606033975,No
1492639019.5,40.4513248306478,-79.94539862040729,0.550000011920929,0.041900634765625,-0.84332275390625,0.59625244140625,0.053509031570199005,-0.049274072804755,0.031595210540482,No
1492639019.7,40.4513248306478,-79.94539862040729,0.550000011920929,0.073165893554688,-0.85748291015625,0.550048828125,-0.03675215567531201,-0.038051778287269994,0.018913770061743,No
1492639019.9,40.4513248306478,-79.94539862040729,0.550000011920929,0.135467529296875,-0.9663238525390621,0.527755737304688,-0.077201311575871,-0.009065932982848,0.033351831595498,No
1492639020.1,40.4513248306478,-79.94539862040729,0.550000011920929,0.094558715820313,-0.82440185546875,0.53704833984375,-0.022452045886022003,-0.0030567762991929996,-0.07272453778344799,No
1492639020.3,40.45134417120779,-79.945406944884,3.2899999618530296,0.109329223632812,-0.7652740478515621,0.490631103515625,-0.05409625859056201,0.012051336564827,-0.009114668830795999,No
1492639020.5,40.45134417120779,-79.945406944884,3.2899999618530296,0.227142333984375,-0.816497802734375,0.537185668945312,0.045785065460642,-0.076867351175175,0.11368581956163,No
1492639020.7,40.45134417120779,-79.945406944884,3.2899999618530296,0.082504272460938,-0.8557586669921879,0.613006591796875,0.050910851610718,-0.060953632081407,0.05932031538486099,No
1492639020.9,40.45134417120779,-79.945406944884,3.2899999618530296,0.122482299804688,-0.9160919189453121,0.524856567382812,-0.046332078748544996,0.024775387621007002,0.05277240121268299,No
1492639021.1,40.4513806681984,-79.9454226537544,5.23999977111816,0.112380981445312,-0.9060516357421879,0.566253662109375,0.015656724048576,0.024369521870879,0.036348686770165,No
1492639021.3,40.4513806681984,-79.9454226537544,5.23999977111816,0.079742431640625,-0.8988037109375,0.507247924804688,-0.043347740431001994,0.044958420258282006,0.0015725966236920003,No
1492639021.5,40.4513806681984,-79.9454226537544,5.23999977111816,0.101119995117188,-0.914306640625,0.55712890625,-0.012189554625402,0.037305826865938994,-0.022611569235317996,No
1492639021.7,40.4513806681984,-79.9454226537544,5.23999977111816,0.05235290527343799,-0.72613525390625,0.5242919921875,-0.009040366636383001,-0.12545246420592698,0.047144609197128,No
1492639021.9,40.4513806681984,-79.9454226537544,5.23999977111816,0.001144409179688,-0.7369232177734379,0.457626342773438,-0.30031508874831103,-0.008696818855763,-0.081952124644463,No
1492639022.1,40.4513806681984,-79.9454226537544,5.23999977111816,0.085708618164063,-0.957855224609375,0.40435791015625,0.022139390774047002,0.11366158479571,-0.07683406166154902,No
1492639022.3,40.4513740999004,-79.9454198266571,9.11999988555908,0.017730712890625,-0.926849365234375,0.562576293945312,-0.12694676389357,-0.084276531643885,-0.029870014786329,No
1492639022.5,40.4513740999004,-79.9454198266571,9.11999988555908,-0.003570556640625,-0.8891754150390621,0.482681274414062,0.006598780548998,-0.014938735818691002,-0.023350596437815,No
1492639022.7,40.4513740999004,-79.9454198266571,9.11999988555908,-0.024948120117188,-0.9456329345703121,0.474639892578125,0.09788501849808,-0.180395075390915,0.063308132801146,No
1492639022.9,40.4513740999004,-79.9454198266571,9.11999988555908,0.03645324707031299,-0.9147491455078121,0.396148681640625,-0.072160480264569,-0.09099648602248199,0.08692557798018599,No
1492639023.1,40.4513740999004,-79.9454198266571,9.11999988555908,0.090560913085938,-0.920318603515625,0.387924194335938,-0.025988191181429,-0.090237485111809,0.059674782125950995,No
1492639023.3,40.4515598467726,-79.9455006347358,11.8000001907349,0.111648559570312,-0.9774932861328121,0.384185791015625,0.037608628281881,-0.076830599552132,0.011245464018969,No
1492639023.5,40.4515598467726,-79.9455006347358,11.8000001907349,0.05833435058593799,-0.8414764404296879,0.381378173828125,-0.036232040314419,-0.100813696748841,0.02441213244832,No
1492639023.7,40.4515598467726,-79.9455006347358,11.8000001907349,0.085159301757813,-0.9557342529296879,0.383468627929688,0.07615815137688701,-0.08239048095989,0.070296267501514,No
1492639023.9,40.4515598467726,-79.9455006347358,11.8000001907349,0.071487426757813,-0.9538421630859379,0.392715454101562,-0.027750138558625997,-0.052996905692577,0.053163353260707,No
1492639024.1,40.451671127812396,-79.9455490664588,13.789999961853,0.118667602539062,-0.9749603271484379,0.345230102539062,-0.060659086464844005,0.014223677066004,0.004673315080870999,No
1492639024.3,40.451671127812396,-79.9455490664588,13.789999961853,0.096954345703125,-0.866729736328125,0.283294677734375,-0.100793989356774,0.018736137217035,-0.017073525748498002,No
1492639024.5,40.451671127812396,-79.9455490664588,13.789999961853,0.0614013671875,-0.9674224853515621,0.27056884765625,-0.009171127845906001,0.037288250002745,-0.009786051741605,No
1492639024.7,40.451671127812396,-79.9455490664588,13.789999961853,0.031570434570313,-0.953338623046875,0.216064453125,-0.062445534924069,-0.003841077240221,0.04735020523328201,No
1492639024.9,40.451671127812396,-79.9455490664588,13.789999961853,-0.02130126953125,-0.8764801025390621,0.23443603515625,-0.019566510844921,-0.072194835042631,0.067157465840746,No
1492639025.1,40.451671127812396,-79.9455490664588,13.789999961853,0.069488525390625,-0.969696044921875,0.20246887207031197,-0.036023248484957,0.054474161149244,-0.061283597740467,No
1492639025.3,40.451793616439204,-79.9456023759468,14.4399995803833,-0.0379638671875,-0.9625244140625,0.19671630859375,-0.012769324794712,-0.08607336643136099,0.029945382245178,No
1492639025.5,40.451793616439204,-79.9456023759468,14.4399995803833,0.0191650390625,-0.95361328125,0.193084716796875,-0.034091391430213,-0.019990486090461997,-0.009893377133535,No
1492639025.7,40.451793616439204,-79.9456023759468,14.4399995803833,0.121368408203125,-0.9369659423828121,0.179962158203125,0.031862059281707995,-0.010844391958803,0.00035420042498100003,No
1492639025.9,40.451793616439204,-79.9456023759468,14.4399995803833,0.023391723632813,-0.9354248046875,0.124435424804688,0.009603891523044,-0.036232306630528004,-0.021132449565888,No
1492639026.1,40.451793616439204,-79.9456023759468,14.4399995803833,0.091995239257813,-0.9732513427734379,0.118988037109375,-0.045138183631862,-0.037998781381577994,0.00923184791876,No
1492639026.3,40.4519139435367,-79.94565474469421,14.140000343322802,0.03875732421875,-1.01492309570312,0.068267822265625,-0.01723944068441,-0.00945981450807,0.00944383554153,No
1492639026.5,40.4519139435367,-79.94565474469421,14.140000343322802,0.002853393554688,-0.9669189453125,0.100692749023438,-0.035676771227138,-0.03273983717699799,0.021043499985479,No
1492639026.7,40.4519139435367,-79.94565474469421,14.140000343322802,0.092819213867188,-0.970611572265625,0.071929931640625,-0.017258881760368,0.034144388335906,-0.04291337885721,No
1492639026.9,40.4519139435367,-79.94565474469421,14.140000343322802,0.13945007324218803,-0.973388671875,0.05621337890625,-0.049491653065815,-0.025203623924292005,0.023015038140465,No
1492639027.1,40.4519139435367,-79.94565474469421,14.140000343322802,0.0662841796875,-1.033935546875,0.02587890625,0.03286021205827,-0.011913917452578998,0.0046320360839750005,No
1492639027.3,40.4520288851281,-79.9457047695621,13.0,0.122146606445312,-1.01211547851562,0.022796630859375,0.035493013111922,0.055083226090545,0.004486094856237999,No
1492639027.5,40.4520288851281,-79.9457047695621,13.0,0.088241577148438,-1.03056335449219,0.011138916015625,0.0035883432527729995,0.044652156732923,-0.00434334942181,No
1492639027.7,40.4520288851281,-79.9457047695621,13.0,0.03662109375,-0.935455322265625,0.072418212890625,-0.071355672983147,0.017485250453023998,0.009886452914701001,No
1492639027.9,40.4520288851281,-79.9457047695621,13.0,0.010879516601563001,-0.9647979736328121,0.095596313476563,-0.008973254976913,-0.01376587967462,0.025532790635026,No
1492639028.1,40.4520288851281,-79.9457047695621,13.0,-0.040283203125,-1.00265502929688,0.05305480957031299,-0.018860240523832,0.007565774340805999,-0.018338260950176998,No
1492639028.3,40.4521320847115,-79.9457496840745,11.3199996948242,-0.099014282226563,-0.9785308837890621,0.121871948242188,-0.065817096864109,0.10785829046431801,-0.034004838694786,No
1492639028.5,40.4521320847115,-79.9457496840745,11.3199996948242,0.07489013671875,-0.94915771484375,0.051422119140625,0.005637912027698001,0.045703572731286,0.002072205644191,No
1492639028.7,40.4521320847115,-79.9457496840745,11.3199996948242,0.05265808105468799,-1.02015686035156,0.070724487304688,-0.023021696043189998,-0.103019859395862,0.06933406739966799,No
1492639028.9,40.4521320847115,-79.9457496840745,11.3199996948242,-0.04096984863281299,-0.9793853759765621,0.147247314453125,-0.01131497252342,-0.123308353212304,0.058844142181955,No
1492639029.1,40.4521320847115,-79.9457496840745,11.3199996948242,-0.14234924316406197,-0.97393798828125,0.22486877441406197,-0.044302217365686,-0.20180369476184398,0.091761612203661,No
1492639029.3,40.4522237828661,-79.94578959293621,10.1199998855591,-0.06280517578125,-1.01776123046875,0.08551025390625,-0.030255906828281005,-0.07639250955281401,-0.009708553753884,No
1492639029.5,40.4522237828661,-79.94578959293621,10.1199998855591,0.018081665039063,-0.9703369140625,0.032058715820313,-0.040269925159197,-0.06355660573085,0.028539499505725,No
1492639029.7,40.4522237828661,-79.94578959293621,10.1199998855591,-0.017379760742188,-1.03036499023438,0.069595336914063,-0.030636738864163,-0.08808751516378802,0.011642008705281,No
1492639029.9,40.4522237828661,-79.94578959293621,10.1199998855591,-0.020217895507813,-1.01397705078125,0.05595397949218799,0.05789978525941299,-0.07270802618468901,0.009310144854808,No
1492639030.1,40.4522237828661,-79.94578959293621,10.1199998855591,0.1319580078125,-0.7706451416015621,0.046356201171875,0.20132698892672,0.141190680983859,-0.237135053995599,No
1492639030.3,40.4523027758946,-79.9458239722742,8.89000034332275,0.132293701171875,-1.03150939941406,-0.026580810546875,0.097801661555961,-0.11019441537253599,0.030073480293611,No
1492639030.5,40.4523027758946,-79.9458239722742,8.89000034332275,-0.20989990234375,-0.983001708984375,-0.1219482421875,0.011723235118529001,-0.25746908786668105,0.16924628411951698,No
1492639030.7,40.4523027758946,-79.9458239722742,8.89000034332275,-0.076614379882813,-1.05036926269531,0.08526611328125,0.008784703171735,-0.0022003036926229996,-0.09799607231553698,No
1492639030.9,40.4523027758946,-79.9458239722742,8.89000034332275,0.073760986328125,-0.9609222412109379,0.156646728515625,-0.004145742868926,-0.041463021327553,-0.030855650705767002,No
1492639031.1,40.4523027758946,-79.9458239722742,8.89000034332275,0.083602905273438,-0.979095458984375,0.17701721191406197,-0.009418801827283002,-0.019089272377578997,-0.022437664816136002,No
1492639031.3,40.452368927452504,-79.9458527627486,6.96000003814697,0.14903259277343803,-0.956329345703125,0.19371032714843803,-0.02084456185205,0.00544936022252,-0.030081469776881004,No
1492639031.5,40.452368927452504,-79.9458527627486,6.96000003814697,0.169219970703125,-0.9514007568359379,0.262176513671875,-0.002100168835636,0.023417175465067,0.010580206378667,No
1492639031.7,40.452368927452504,-79.9458527627486,6.96000003814697,0.146881103515625,-0.9820098876953121,0.22282409667968803,-0.007459247897203,0.11173638564369198,-0.016357934363594,No
1492639031.9,40.452368927452504,-79.9458527627486,6.96000003814697,0.11138916015625,-0.9607086181640621,0.278961181640625,0.017694308598595998,-0.005429386514345,0.026850522742397003,No
1492639032.1,40.452368927452504,-79.9458527627486,6.96000003814697,0.20692443847656197,-0.894073486328125,0.356399536132812,-0.051986236058892,0.090747480460559,-0.042348788706113,No
1492639032.3,40.4524248231262,-79.9458770896582,6.650000095367429,0.12469482421875,-0.904815673828125,0.343780517578125,0.011642807653608,0.041413752847386,0.027733893275975998,No
1492639032.5,40.4524248231262,-79.9458770896582,6.650000095367429,0.120437622070312,-0.909912109375,0.330474853515625,-0.09594437301174,0.033603500318511004,0.025586320172935998,No
1492639032.7,40.4524248231262,-79.9458770896582,6.650000095367429,0.12933349609375,-0.899566650390625,0.365753173828125,-0.010133327947751998,0.07239909949824001,0.001841842209899,No
1492639032.9,40.4524248231262,-79.9458770896582,6.650000095367429,0.071502685546875,-0.9014434814453121,0.225250244140625,-0.024961542581203998,0.040592700283315,0.056149023158795,No
1492639033.1,40.4524248231262,-79.9458770896582,6.650000095367429,-0.05805969238281299,-0.952606201171875,0.23310852050781197,-0.033739587850214,-0.098694086837247,0.07667666884112499,No
1492639033.3,40.452486571403206,-79.9459039637371,8.10999965667725,-0.03578186035156299,-1.00985717773438,0.05836486816406299,-0.085762575532149,-0.0037031254957550002,-0.03818600160621,No
1492639033.5,40.452486571403206,-79.9459039637371,8.10999965667725,-0.121185302734375,-1.02548217773438,0.075103759765625,-0.027068369319564998,-0.063647419524022,-0.002245311115046,No
1492639033.7,40.452486571403206,-79.9459039637371,8.10999965667725,-0.04341125488281299,-1.00151062011719,0.03302001953125,-0.029124329681107,-0.18913983114629998,0.07908975910484599,No
1492639033.9,40.452486571403206,-79.9459039637371,8.10999965667725,0.02362060546875,-1.00010681152344,0.1029052734375,-0.017507887322290003,-0.012658803609473999,-0.05025864345975701,No
1492639034.1,40.452486571403206,-79.9459039637371,8.10999965667725,-0.02716064453125,-0.97955322265625,0.033767700195313,-0.024493358861567997,-0.10514559457796302,0.020278640120408,No
1492639034.3,40.452481026446904,-79.9459015504618,7.21000003814697,0.043365478515625,-1.00674438476562,0.05094909667968799,-0.017973940513054,-0.008395082704257,-0.014023141035921002,No
1492639034.5,40.452481026446904,-79.9459015504618,7.21000003814697,0.067153930664063,-1.00497436523438,0.033035278320313,-0.049429867728525,0.031164843708325,-0.028308070806997005,No
1492639034.7,40.452481026446904,-79.9459015504618,7.21000003814697,0.025115966796875,-0.9799041748046879,0.10675048828125,0.0032834113079590003,-0.009596700988101,-0.011669971896727,No
1492639034.9,40.452481026446904,-79.9459015504618,7.21000003814697,0.091720581054688,-0.9842376708984379,0.103530883789062,-0.030509706080166,0.002321743838331,-0.0259074974004,No
1492639035.1,40.452481026446904,-79.9459015504618,7.21000003814697,0.07830810546875,-0.9817352294921879,0.16746520996093803,-0.007714112413524,-0.030797327477893998,0.002132925717044,No
1492639035.3,40.452481026446904,-79.9459015504618,5.860000133514401,0.09490966796875,-0.9521636962890621,0.18656921386718803,-0.030012227588538998,-0.026397785357083,-0.00023915186588900004,No
1492639035.5,40.452481026446904,-79.9459015504618,5.860000133514401,0.103607177734375,-0.9485015869140621,0.20458984375,-0.0030317425849459997,0.013847372403976002,-0.004331631513014,No
1492639035.7,40.452481026446904,-79.9459015504618,5.860000133514401,0.016952514648438,-0.99566650390625,0.21754455566406197,-0.049945189399455005,0.015217036152603999,0.000515587987039,No
1492639035.9,40.452481026446904,-79.9459015504618,5.860000133514401,0.103790283203125,-0.93182373046875,0.199249267578125,-0.001339037396092,-0.028711007079926004,0.004325239926398,No
1492639036.1,40.452481026446904,-79.9459015504618,5.860000133514401,0.088760375976563,-0.936737060546875,0.21138000488281197,0.002184058409974,-0.006397711886696999,-0.0074246268030319995,No
1492639036.3,40.452650865308705,-79.94597970698399,5.59000015258789,0.112533569335938,-0.9427337646484379,0.313674926757812,-0.010104033175761,0.037292777376598,-0.019391541161303,No
1492639036.5,40.452650865308705,-79.94597970698399,5.59000015258789,0.025772094726563,-0.94580078125,0.281234741210938,-0.04751079384701401,0.046048185776342,-0.004870122685427999,No
1492639036.7,40.452650865308705,-79.94597970698399,5.59000015258789,0.022048950195313,-0.9506378173828121,0.310211181640625,0.02937573208801,-0.031036479343782997,0.015307849945776001,No
1492639036.9,40.452650865308705,-79.94597970698399,5.59000015258789,0.009140014648438,-0.9195098876953121,0.3564453125,-0.010633203284359002,-0.0637472880649,0.041637991011170994,No
1492639037.1,40.4527066323552,-79.9460054230079,6.449999809265139,0.034149169921875,-0.9069671630859379,0.402175903320312,-0.006110623121186999,-0.028673989140773997,0.041593782537076004,No
1492639037.3,40.4527066323552,-79.9460054230079,6.449999809265139,0.093048095703125,-0.957977294921875,0.264007568359375,-0.046613841191875005,0.00030040457096099993,-0.017537448410389997,No
1492639037.5,40.4527066323552,-79.9460054230079,6.449999809265139,0.037261962890625,-1.01860046386719,0.17572021484375,-0.029688653516094,0.022531674402615,0.0028365328770429995,No
1492639037.7,40.4527066323552,-79.9460054230079,6.449999809265139,0.038604736328125,-0.916046142578125,0.22431945800781197,-0.029844981072082003,-0.04447319230766901,0.055252336819765,No
1492639037.9,40.4527066323552,-79.9460054230079,6.449999809265139,0.081329345703125,-0.980224609375,0.282958984375,-0.005860285978719,-0.049954776779379005,0.011797270996833002,No
1492639038.1,40.4527066323552,-79.9460054230079,6.449999809265139,0.099044799804688,-0.9947357177734379,0.415817260742188,0.053229399655741,-0.07480047185316499,0.038055506712796,No
1492639038.3,40.452765222790205,-79.94603244098941,7.30999994277954,0.081802368164063,-0.9553985595703121,0.381973266601562,0.052672532671804995,0.039012646808571,-0.014488395278358001,No
1492639038.5,40.452765222790205,-79.94603244098941,7.30999994277954,0.13984680175781197,-0.9312896728515621,0.36480712890625,0.02150768896348,0.059431102886207995,0.017126256338082,No
1492639038.7,40.452765222790205,-79.94603244098941,7.30999994277954,0.20796203613281197,-0.8914947509765621,0.455108642578125,0.007129548554251,-0.0021702099723060002,0.022469090116999,No
1492639038.9,40.452765222790205,-79.94603244098941,7.30999994277954,0.09088134765625,-0.934539794921875,0.414535522460938,-0.025605494932785,0.034209103150395,0.022040054865387,No
1492639039.1,40.452765222790205,-79.94603244098941,7.30999994277954,0.0711669921875,-0.8883514404296879,0.4180908203125,-0.03846882931397701,0.013017531408306998,0.016631973639763,No
1492639039.3,40.4528367799553,-79.9460654383577,9.40999984741211,0.03874206542968799,-0.9061431884765621,0.364364624023438,-0.011491540103692001,-0.038212633217111,0.040497092800181,No
1492639039.5,40.4528367799553,-79.9460654383577,9.40999984741211,-0.029052734375,-0.8983001708984379,0.332626342773438,-0.072275262507551,0.027063841945712003,0.004521248582628,No
1492639039.7,40.4528367799553,-79.9460654383577,9.40999984741211,-0.01129150390625,-1.05458068847656,0.364501953125,0.12897715790864697,-0.101890146461451,0.013311810708761002,No
1492639039.9,40.4528367799553,-79.9460654383577,9.40999984741211,-0.116043090820312,-0.917755126953125,0.37420654296875,-0.037191577255175,-0.073149578293425,0.03179441499002,No
1492639040.1,40.4528367799553,-79.9460654383577,9.40999984741211,-0.102081298828125,-0.964691162109375,0.33172607421875,0.07474854021190801,-0.14195074715896802,0.062972041871578,No
1492639040.3,40.4529271132491,-79.946107094018,11.029999732971199,0.0059814453125,-0.9567108154296879,0.24159240722656197,-0.001424791183192,-0.099972404160485,0.049289252822969004,No
1492639040.5,40.4529271132491,-79.946107094018,11.029999732971199,-0.031753540039063,-0.9294281005859379,0.24223327636718803,-0.00289911716266,-0.07124754864289,0.017213608021836,No
1492639040.7,40.4529271132491,-79.946107094018,11.029999732971199,0.05223083496093799,-0.9842987060546879,0.22782897949218803,-0.06448311947408901,-0.079359537323271,-0.00045540054640400007,No
1492639040.9,40.4529271132491,-79.946107094018,11.029999732971199,0.085479736328125,-0.95892333984375,0.17193603515625,-0.035610458515995,0.082125762747537,-0.07627772730983201,No
1492639041.1,40.4529271132491,-79.946107094018,11.029999732971199,-0.014663696289063001,-0.9745635986328121,0.187530517578125,0.023836889652863,-0.019308450535293,-0.040222254575685,No
1492639041.3,40.453024664848,-79.9461520782768,11.729999542236301,-0.018356323242188,-1.02751159667969,0.20819091796875,0.036346023609074,0.009336243833491,-0.004983040715647,No
1492639041.5,40.453024664848,-79.9461520782768,11.729999542236301,0.0887451171875,-0.984130859375,0.171600341796875,0.01645034605342,0.040312269420529,-0.012730176326687999,No
1492639041.7,40.453024664848,-79.9461520782768,11.729999542236301,0.01641845703125,-0.942779541015625,0.162078857421875,-0.066079418231482,0.05148103440010401,-0.045590388384958005,No
1492639041.9,40.453024664848,-79.9461520782768,11.729999542236301,0.017181396484375,-0.960235595703125,0.159912109375,-0.019791015324815,-0.063692693262553,0.010623882220544001,No
1492639042.1,40.453024664848,-79.9461520782768,11.729999542236301,0.113113403320312,-0.9380950927734379,0.096176147460938,-0.033995517630971,-0.007226487617930001,-0.009925335066616,No
1492639042.3,40.4531243313937,-79.94619803780729,11.5699996948242,0.015426635742188001,-0.9711761474609379,0.025436401367188,-0.003788080334529,-0.036138030727938995,0.023511185051547,No
1492639042.5,40.4531243313937,-79.94619803780729,11.5699996948242,0.05867004394531299,-0.9468994140625,0.063247680664063,-0.023691747373454,-0.017927601510086003,0.009399627067435,No
1492639042.7,40.4531243313937,-79.94619803780729,11.5699996948242,0.009658813476563,-0.9994964599609379,0.02545166015625,-0.043540819610033,0.029004753748162002,0.006942860961837,No
1492639042.9,40.4531243313937,-79.94619803780729,11.5699996948242,0.080093383789063,-1.02302551269531,0.04933166503906299,-0.027757595409677996,-0.025350097784246,-0.00874848418091,No
1492639043.1,40.4532179548745,-79.9462412106814,10.6999998092651,0.012069702148438001,-0.983428955078125,0.101119995117188,-0.022710905143977996,-0.03495398930729,0.006254966452269,No
1492639043.3,40.4532179548745,-79.9462412106814,10.6999998092651,0.016632080078125,-0.99981689453125,0.04304504394531299,-0.06023830701261099,0.031237015373866,-0.016690563183745,No
1492639043.5,40.4532179548745,-79.9462412106814,10.6999998092651,0.0726318359375,-0.9698638916015621,0.027542114257813,-0.017501229419564997,0.04478691268408099,-0.019486616012219,No
1492639043.7,40.4532179548745,-79.9462412106814,10.6999998092651,0.047637939453125,-1.01658630371094,0.030899047851563,0.003364637721206,0.014869493630347999,-0.004268780911288,No
1492639043.9,40.4532179548745,-79.9462412106814,10.6999998092651,0.07598876953125,-0.9754791259765621,0.03480529785156299,0.023433420747716,-0.032066856369535,-0.017802965571071,No
1492639044.1,40.453304220827604,-79.9462809907568,9.52000045776367,0.047607421875,-0.962127685546875,0.001190185546875,-0.019022693350327,0.005441104423141,-0.007672300784409,No
1492639044.3,40.453304220827604,-79.9462809907568,9.52000045776367,0.003692626953125,-0.96429443359375,0.09039306640625,0.018700450858426997,-0.017137175298551,0.024758609706139998,No
1492639044.5,40.453304220827604,-79.9462809907568,9.52000045776367,0.034255981445313,-1.04144287109375,0.007232666015625,-0.067160661634054,-0.002753708567142,0.003584348511138,No
1492639044.7,40.453304220827604,-79.9462809907568,9.52000045776367,-0.015960693359375,-1.01556396484375,0.048187255859375,-0.017190172204244,-0.024354075536557003,-0.002245577431155,No
1492639044.9,40.453304220827604,-79.9462809907568,9.52000045776367,0.044586181640625,-1.00814819335938,0.029541015625,-0.04049789174850799,0.037484791291192004,-0.054888282698751,No
1492639045.1,40.453304220827604,-79.9462809907568,9.52000045776367,0.037750244140625,-0.9962005615234379,-0.01800537109375,-0.036661075566030994,0.04172001637274501,-0.021807294586114,No
1492639045.3,40.453377614429705,-79.9463148349668,8.050000190734862,-0.0062713623046880005,-1.01258850097656,-0.027557373046875,-0.021237378112836998,-0.013692110112424,-0.011910455343161002,No
1492639045.5,40.453377614429705,-79.9463148349668,8.050000190734862,0.001541137695313,-1.00741577148438,-0.04594421386718799,0.018878882651463,-0.024587102131939,0.007720237684031,No
1492639045.7,40.453377614429705,-79.9463148349668,8.050000190734862,0.0311279296875,-1.01423645019531,-0.015731811523438,-0.021427794130778,-0.025390577832816,-0.004418716880659,No
1492639045.9,40.453377614429705,-79.9463148349668,8.050000190734862,0.05125427246093799,-0.996002197265625,-0.031356811523438,-0.007390538341079,-0.005271727377812,-0.007525560608346,No
1492639046.1,40.453377614429705,-79.9463148349668,8.050000190734862,0.05364990234375,-1.01840209960938,-0.032333374023438,-0.007608917550465,-0.014842063071121,0.003159041685052,No
1492639046.3,40.45343625055779,-79.9463418740188,6.150000095367429,0.058349609375,-1.02529907226562,-0.05902099609375,-0.041977277734047004,-0.032699889760647,0.014581605916511002,No
1492639046.5,40.45343625055779,-79.9463418740188,6.150000095367429,0.0634765625,-0.9884185791015621,-0.033828735351563,-0.027986627263424997,-0.040239298806661,-0.000182692850779,No
1492639046.7,40.45343625055779,-79.9463418740188,6.150000095367429,0.030807495117188,-1.02508544921875,-0.033096313476563,-0.005661880477508,-0.002086853030186,0.023404125975725,No
1492639046.9,40.45343625055779,-79.9463418740188,6.150000095367429,0.014053344726563001,-1.01533508300781,-0.009185791015625,-0.03679290203999,0.01831855355811,-0.024946895195207996,No
1492639047.1,40.45343625055779,-79.9463418740188,6.150000095367429,-0.000396728515625,-1.01765441894531,-0.012802124023438001,-0.013407418191895,0.014975487441734,-0.023632625197253995,No
1492639047.3,40.4534732498084,-79.9463589355933,3.7699999809265097,0.061492919921875,-1.00238037109375,-0.021469116210938,-0.026181536676569,0.031015706687281,-0.015275093064367999,No
1492639047.5,40.4534732498084,-79.9463589355933,3.7699999809265097,0.05812072753906299,-0.9939117431640621,-0.010787963867188001,-0.025312547212876,0.022501846998407002,-0.005648298355949001,No
1492639047.7,40.4534732498084,-79.9463589355933,3.7699999809265097,0.052825927734375,-1.01313781738281,-0.011138916015625,-0.022347383655182,0.019293803149297,0.009317335389750998,No
1492639048.0,40.4534732498084,-79.9463589355933,3.7699999809265097,0.015213012695313001,-1.00550842285156,0.001663208007813,-0.024693894891651004,-0.011538944371094999,0.008306665756066001,No
1492639048.1,40.4534732498084,-79.9463589355933,3.7699999809265097,0.0067901611328130005,-1.00984191894531,-0.0065155029296880005,-0.017670340148785,0.032024245792094,-0.014124341157344,No
1492639048.3,40.453495408060604,-79.94636915349399,1.9099999666213998,0.021942138671875,-0.9964141845703121,0.017623901367188,-0.019328956875686,-0.0041276333735140005,0.009408681815141,No
1492639048.5,40.453495408060604,-79.94636915349399,1.9099999666213998,0.04228210449218799,-1.00071716308594,0.08575439453125,-0.004513259099357,-0.020180103160075,0.0074693679093450005,No
1492639048.7,40.453495408060604,-79.94636915349399,1.9099999666213998,0.037811279296875,-0.9845733642578121,0.112991333007812,-0.012723518423963,0.003273557611925,-0.00227114377762,No
1492639048.9,40.453495408060604,-79.94636915349399,1.9099999666213998,0.04512023925781299,-0.98101806640625,0.114151000976562,-0.021137509571959,0.0054546865447,-0.008760202089706999,No
1492639049.2,40.4535040713969,-79.9463731484441,0.610000014305115,0.04582214355468799,-0.9867706298828121,0.0743408203125,-0.021286646593003004,0.001202150916062,-0.000221042370477,No
1492639049.3,40.4535040713969,-79.9463731484441,0.610000014305115,0.029647827148438,-0.996673583984375,0.1072998046875,-0.000123836990689,-0.01063586644545,0.0032248217639770003,No
1492639049.5,40.4535040713969,-79.9463731484441,0.610000014305115,0.034698486328125,-0.9949493408203121,0.10284423828125,-0.011729360389036,-0.004178766066443,-0.001175519305161,No
1492639049.7,40.4535040713969,-79.9463731484441,0.610000014305115,0.026275634765625,-0.9773406982421879,0.108306884765625,-0.017154219529527,-0.013716611194453002,0.000925981111021,No
1492639050.0,40.4535040713969,-79.9463731484441,0.610000014305115,0.040863037109375,-0.964080810546875,0.21311950683593803,-0.01170672351977,-0.003115365843175,-0.00224424585061,No
1492639050.1,40.4535040713969,-79.9463731484441,0.610000014305115,0.041595458984375,-0.9550323486328121,0.21246337890625,-0.007517038492858001,-0.008460862783182,-5.5127434564640196e-05,No
1492639050.3,40.4535040624832,-79.94637314433359,0.0,0.04736328125,-0.9698486328125,0.2122802734375,-0.021220067565751,0.002264752191003,-0.004487959069002,No
1492639050.5,40.4535040624832,-79.94637314433359,0.0,0.040069580078125,-0.9702911376953121,0.18421936035156197,-0.017151556368436998,-0.009461412404725,0.003047455235378,No
1492639050.7,40.4535040624832,-79.94637314433359,0.0,0.0361328125,-0.975006103515625,0.129013061523438,-0.016018913956827,-0.006278135953753,-0.00014780544049899997,No
1492639050.9,40.4535040624832,-79.94637314433359,0.0,0.04292297363281299,-0.9811859130859379,0.128585815429688,-0.019138540857745,-0.0041310954829309994,-0.004450142181522,No
1492639051.1,40.4535040624832,-79.94637314433359,0.0,0.042633056640625,-0.9751434326171879,0.12847900390625,-0.021234714951747,0.002265018507112,-0.0034218956846429997,No
1492639051.3,40.4535079597826,-79.94637494150692,0.150000005960464,0.04597473144531299,-0.975189208984375,0.128890991210938,-0.02117479382722,0.004391552637541,-0.006625412159899001,No
1492639051.5,40.4535079597826,-79.94637494150692,0.150000005960464,0.05470275878906299,-0.95404052734375,0.19032287597656197,-0.015978966540475002,-0.000959803256865,-0.00016112124595,No
1492639051.7,40.4535079597826,-79.94637494150692,0.150000005960464,0.04835510253906299,-0.978790283203125,0.16786193847656197,-0.012838034350836,-0.004171042899282,0.0020117518874460004,No
1492639051.9,40.4535079597826,-79.94637494150692,0.150000005960464,0.04461669921875,-0.9708709716796879,0.159820556640625,-0.014968829539008001,-0.006284793856478001,0.0009291769043289999,No
1492639052.1,40.4535079597826,-79.94637494150692,0.150000005960464,0.04644775390625,-0.9584197998046879,0.17707824707031197,-0.013896108251924999,-0.005228051535935,0.000937432703708,No
1492639052.3,40.453508323088606,-79.9463751090393,0.0,0.04362487792968799,-0.9731597900390621,0.161834716796875,-0.015996277087561,-0.0052147357304839995,-0.001216531985948,No
1492639052.5,40.453508323088606,-79.9463751090393,0.0,0.048309326171875,-0.9675140380859379,0.16961669921875,-0.014992797988818998,-0.009475793474611,0.000937166387599,No
1492639052.7,40.453508323088606,-79.9463751090393,0.0,0.04193115234375,-0.96533203125,0.17091369628906197,-0.017045029924834,-0.003080478432895,-0.0012327772685980002,No
1492639052.9,40.453508323088606,-79.9463751090393,0.0,0.04296875,-0.973358154296875,0.16371154785156197,-0.012877981767187,-0.00948937559617,0.0020250676928960003,No
1492639053.1,40.453508323088606,-79.9463751090393,0.0,0.04539489746093799,-0.9671783447265621,0.16845703125,-0.014930213703202,-0.0030940605544540005,-0.0001448759633,No
1492639053.3,40.453508367885604,-79.94637512969659,0.0,0.04661560058593799,-0.9699859619140621,0.16815185546875,-0.013889450349198999,-0.006291984391420999,-0.000125967519561,No
1492639053.5,40.453508367885604,-79.94637512969659,0.0,0.0457763671875,-0.969970703125,0.166748046875,-0.015996277087561,-0.0052147357304839995,-0.001216531985948,No
1492639053.7,40.453508367885604,-79.94637512969659,0.0,0.04505920410156299,-0.971649169921875,0.16676330566406197,-0.014894261028485999,-0.004158526042159,-0.0033404029552859997,No
1492639053.9,40.453508367885604,-79.94637512969659,0.0,0.050018310546875,-0.9732666015625,0.17152404785156197,-0.012847355414651,-0.007362308833524,0.0009536779863570001,No
1492639054.1,40.453508367885604,-79.94637512969659,0.0,0.041900634765625,-0.967071533203125,0.17317199707031197,-0.017090303663366002,-0.005207278879432,0.0009046758223,No
1492639054.3,40.4535084125641,-79.9463751502993,0.0,0.04876708984375,-0.9710540771484379,0.16548156738281197,-0.015957661251754997,-0.00202400242846,-0.002290584853577,No
1492639054.5,40.4535084125641,-79.9463751502993,0.0,0.03865051269531299,-0.969940185546875,0.16996765136718803,-0.019145198760471,-0.003067162627444,-0.003386741958254,No
1492639054.7,40.4535084125641,-79.9463751502993,0.0,0.054046630859375,-0.96722412109375,0.18223571777343803,-0.011729360389036,-0.004178766066443,-0.001175519305161,No
1492639054.9,40.4535084125641,-79.9463751502993,0.0,0.040313720703125,-0.9610748291015621,0.245941162109375,-0.0054075485934059996,-0.0052829126543899995,0.00315691115618,No
1492639055.1,40.4535084125641,-79.9463751502993,0.0,0.05326843261718799,-0.9546356201171879,0.255233764648438,-0.013928066185005,-0.009482717693445,0.000948085348068,No
1492639055.3,40.4535084572226,-79.9463751708929,0.0,0.073211669921875,-0.9254150390625,0.318405151367188,-0.0019590212978620003,0.003202184894711,-0.010690461247795999,No
1492639055.5,40.4535084572226,-79.9463751708929,0.0,0.0919189453125,-0.926483154296875,0.3441162109375,-0.010311759740786998,0.021339377182586997,-0.012955213438799998,No
1492639055.7,40.4535084572226,-79.9463751708929,0.0,0.091949462890625,-0.9222869873046879,0.361160278320312,-0.012358665354622,0.047947019633569,-0.00451512331212,No
1492639055.9,40.4535084572226,-79.9463751708929,0.0,0.075515747070313,-0.9471282958984379,0.36785888671875,-0.015331818395586,0.061793326773108996,-0.013111008362569,No
1492639056.2,40.4535213003103,-79.9463810932641,1.38999998569489,0.113113403320312,-0.90484619140625,0.339752197265625,-0.009985522507252,0.07452403573201401,-0.00775805457151,No
1492639056.3,40.4535213003103,-79.9463810932641,1.38999998569489,0.096954345703125,-0.9435882568359379,0.346710205078125,-0.022149777102297995,0.117148461610951,-0.029316876227919,No
1492639056.5,40.4535213003103,-79.9463810932641,1.38999998569489,0.122909545898438,-0.908203125,0.33453369140625,-0.034543063551091005,0.144883686467472,-0.042309906554197994,No
1492639056.7,40.4535213003103,-79.9463810932641,1.38999998569489,0.210723876953125,-0.9678497314453121,0.32806396484375,-0.005041630259629001,0.202128866730943,-0.06561229977628201,No
1492639056.9,40.4535213003103,-79.9463810932641,1.38999998569489,0.061126708984375,-1.1432800292968799,0.270095825195312,-0.015936622279143,0.23943602517742701,-0.027436418182214,No
1492639057.1,40.4535213003103,-79.9463810932641,1.38999998569489,0.1632080078125,-0.964752197265625,0.262054443359375,0.06495689583201401,0.295279850075299,-0.071533305827855,No
1492639057.3,40.45354141236629,-79.9463903675963,3.08999991416931,0.385101318359375,-0.979949951171875,0.283050537109375,0.07420312482066001,0.30053027216439,-0.12156424901441099,No
1492639057.5,40.45354141236629,-79.9463903675963,3.08999991416931,0.295089721679688,-0.8465423583984379,0.381912231445312,0.066320700626243,0.26549319223108897,-0.031992554175122,No
1492639057.7,40.45354141236629,-79.9463903675963,3.08999991416931,0.259536743164062,-1.12908935546875,0.23089599609375,0.070186811580711,0.39844911280831397,0.068994248044574,No
1492639057.9,40.45354141236629,-79.9463903675963,3.08999991416931,-0.05506896972656299,-1.02607727050781,0.263641357421875,-0.062339541112684,0.335463222499068,-0.085734878656812,No
1492639058.2,40.4535688201597,-79.9464030062335,4.30999994277954,0.18376159667968803,-0.9321441650390621,0.285507202148438,-0.0011265171411039999,0.305272296801385,-0.139407162001833,No
1492639058.3,40.4535688201597,-79.9464030062335,4.30999994277954,0.17131042480468803,-1.13352966308594,0.297805786132812,0.125155788060492,0.33424269577148497,-0.09127558530472199,No
1492639058.5,40.4535688201597,-79.9464030062335,4.30999994277954,0.021881103515625,-0.825286865234375,0.405120849609375,-0.22509250586236898,0.40671902694133705,-0.137697146265893,No
1492639058.7,40.4535688201597,-79.9464030062335,4.30999994277954,0.14341735839843803,-0.904327392578125,0.4136962890625,-0.073838804383537,0.3801907466908401,-0.23203936156584098,No
1492639058.9,40.4535688201597,-79.9464030062335,4.30999994277954,0.451873779296875,-0.90118408203125,0.15043640136718803,-0.136349054122095,0.49974058065671506,-0.19033931890127104,No
1492639059.1,40.4535688201597,-79.9464030062335,4.30999994277954,0.351043701171875,-0.833831787109375,0.252914428710938,-0.06902593966154599,0.563128608290563,-0.172754199907369,No
1492639059.3,40.4535524302712,-79.9464637512025,5.40999984741211,0.449066162109375,-0.903167724609375,0.24763488769531197,-0.122703283012638,0.479441700512022,-0.186948582201382,No
1492639059.5,40.4535524302712,-79.9464637512025,5.40999984741211,0.25,-0.990753173828125,0.387908935546875,-0.031671909579876,0.32357673560571804,0.000973119062315,No
1492639059.7,40.4535524302712,-79.9464637512025,5.40999984741211,0.313644409179688,-0.8820953369140621,0.20494079589843803,-0.013128851541873,0.43833021644836,-0.046046587879687996,No
1492639059.9,40.4535524302712,-79.9464637512025,5.40999984741211,0.286270141601562,-0.925811767578125,0.251495361328125,-0.106395149761429,0.388932572969025,-0.10551577396948401,No
1492639060.1,40.45352870344129,-79.9465348219007,6.380000114440921,0.2210693359375,-0.9024505615234379,0.23402404785156197,-0.04724873879575,0.309843879128615,-0.03540219931875,No
1492639060.3,40.45352870344129,-79.9465348219007,6.380000114440921,0.243377685546875,-0.9613189697265621,0.15570068359375,-0.058908324364225995,0.30458759808512603,-0.11973891840327099,No
1492639060.5,40.45352870344129,-79.9465348219007,6.380000114440921,0.15965270996093803,-0.854400634765625,0.26434326171875,-0.103685649668382,0.38679298934925505,-0.07136366246641701,No
1492639060.8,40.45352870344129,-79.9465348219007,6.380000114440921,-0.032821655273438,-1.0194091796875,0.307571411132812,-0.005752161638462,0.26489424730193106,-0.057251838166196,No
1492639061.0,40.45352870344129,-79.9465348219007,6.380000114440921,-0.083053588867188,-0.988983154296875,0.20707702636718803,0.040184171372097,0.062506787629141,0.054627026595814004,No
1492639061.1,40.45352870344129,-79.9465348219007,6.380000114440921,-0.136871337890625,-0.76312255859375,0.305160522460938,-0.045750178050362,0.0066800069622459995,0.0005805691176369999,No
1492639061.3,40.453504097065,-79.94660852716821,7.099999904632571,-0.099090576171875,-1.16673278808594,0.098358154296875,0.033122000793425,0.15505003761274,-0.23356189076103895,No
1492639061.5,40.453504097065,-79.94660852716821,7.099999904632571,-0.108901977539062,-0.6726226806640621,0.206146240234375,-0.06066281489037,0.138652422148904,-0.159844792839319,No
1492639061.7,40.453504097065,-79.94660852716821,7.099999904632571,-0.102951049804688,-0.79693603515625,0.0933837890625,0.023020098146536,-0.06502507275592,0.071839835669324,No
1492639061.9,40.453504097065,-79.94660852716821,7.099999904632571,-0.06129455566406299,-1.04289245605469,0.610992431640625,-0.207961189518217,-0.248602093017262,0.11899456487859401,No
1492639062.1,40.453504097065,-79.94660852716821,7.099999904632571,0.081741333007813,-0.8836822509765621,0.29486083984375,0.040804155273867,-0.07472377281377,0.012338957962555,No
1492639062.3,40.4534766798794,-79.9466906518567,7.98000001907349,0.023605346679688,-0.928314208984375,0.317352294921875,-0.116358834347742,0.047555534953327004,-0.031168039501633,No
1492639062.5,40.4534766798794,-79.9466906518567,7.98000001907349,0.01708984375,-1.03742980957031,0.26727294921875,0.17073073011112697,-0.134078709292802,-0.020296483299712,No
1492639062.7,40.4534766798794,-79.9466906518567,7.98000001907349,0.111541748046875,-0.9706878662109379,0.14613342285156197,0.08540810879105902,0.01964187830377,-0.08234094616361501,No
1492639062.9,40.4534766798794,-79.9466906518567,7.98000001907349,0.119125366210938,-1.06449890136719,0.485519409179688,-0.19508480564768302,-0.022119949698089003,0.08015821933418599,No
1492639063.1,40.4534766798794,-79.9466906518567,7.98000001907349,0.075546264648438,-0.9908905029296879,0.128097534179688,-0.032396023080268996,-0.011485947465403,0.026353310566879,No
1492639063.3,40.4534478645646,-79.9467786170378,8.409999847412111,0.092361450195313,-0.9861297607421879,0.119552612304688,-0.016777914867498998,-0.037114878215779995,0.038307708068027004,No
1492639063.5,40.4534478645646,-79.9467786170378,8.409999847412111,0.14727783203125,-0.81951904296875,0.21818542480468803,-0.184956537706003,0.086291745640748,-0.055427040187274006,No
1492639063.7,40.4534478645646,-79.9467786170378,8.409999847412111,0.22845458984375,-0.92138671875,0.117706298828125,-0.066922308716492,-0.01977903109991,-0.023024625520389,No
1492639063.9,40.4534478645646,-79.9467786170378,8.409999847412111,0.04133605957031299,-0.9709320068359379,0.1138916015625,-0.22377717059997898,0.25992638660449696,-0.080795513783042,No
1492639064.1,40.4534478645646,-79.9467786170378,8.409999847412111,0.23783874511718803,-1.08734130859375,0.18556213378906197,0.104723749861295,0.10781088619691498,-0.045053228793089005,No
1492639064.3,40.4534197925868,-79.94686690591209,7.889999866485599,-0.074081420898438,-0.9121551513671879,0.07025146484375,-0.068800636233325,-0.032523055864266,0.0292335192858,No
1492639064.5,40.4534197925868,-79.94686690591209,7.889999866485599,-0.081985473632813,-1.03260803222656,0.05696105957031299,-0.014281467661658998,-0.040314399949402,0.087387370113206,No
1492639064.7,40.4534197925868,-79.94686690591209,7.889999866485599,-0.03639221191406299,-1.02818298339844,0.0574951171875,0.034808580711772,-0.04383882733601201,0.000469515300181,Yes
1492639064.9,40.4534197925868,-79.94686690591209,7.889999866485599,-0.228759765625,-1.110595703125,-0.14460754394531197,0.029031385359062998,-0.143806704122644,-0.09848955606552802,Yes
1492639065.1,40.4534197925868,-79.94686690591209,7.889999866485599,0.232879638671875,-0.932159423828125,-0.099151611328125,0.09559922733446499,-0.515404495240234,0.357358135085046,Yes
1492639065.3,40.4533953856059,-79.94694366804441,6.5,0.028274536132813,-0.9561614990234379,-0.010147094726563,-0.084326865388487,-0.035618714315374,-0.005036303937449,Yes
1492639065.5,40.4533953856059,-79.94694366804441,6.5,0.371368408203125,-0.7599639892578121,-0.019989013671875,-0.23275681716350802,0.004700213007881,-0.031182953203738,Yes
1492639065.7,40.4533953856059,-79.94694366804441,6.5,0.104537963867188,-0.9968414306640621,-0.00360107421875,0.07246141746774801,-0.18766550516683198,0.127039441899505,Yes
1492639065.9,40.4533953856059,-79.94694366804441,6.5,-0.001068115234375,-1.00830078125,-0.0499267578125,-0.018610436013583,-0.04242548774550701,0.013779728112288002,Yes
1492639066.1,40.4533953856059,-79.94694366804441,6.5,0.021942138671875,-1.05784606933594,-0.126373291015625,0.00315957431727,-0.043636427093166,-0.021179321201073,Yes
1492639066.3,40.4533770608382,-79.94700130107321,4.44000005722046,0.007598876953125,-1.06147766113281,-0.14585876464843803,0.023589215671486,-0.005474393936767001,-0.014671354445247,Yes
1492639066.5,40.4533770608382,-79.94700130107321,4.44000005722046,0.022735595703125,-1.03237915039062,-0.1549072265625,-0.027519775124333998,-0.04768203510510599,0.039291213458592995,Yes
1492639066.7,40.4533770608382,-79.94700130107321,4.44000005722046,0.029296875,-1.05226135253906,-0.129241943359375,-0.01741387773581,-0.0073290193198980004,0.023297333216012996,Yes
1492639066.9,40.4533770608382,-79.94700130107321,4.44000005722046,0.031570434570313,-1.03675842285156,-0.106491088867188,-0.023650468376558,-0.03388552907795,-0.0022871227441599996,No
1492639067.1,40.4533770608382,-79.94700130107321,4.44000005722046,0.05072021484375,-1.01455688476562,-0.003448486328125,-0.005182511481294,0.0032234901834320004,-0.008591091360487,No
1492639067.3,40.4533698505228,-79.94702397815841,1.7300000190734899,0.043914794921875,-1.01258850097656,0.06111145019531299,-0.017172861657158003,-0.008397213233129001,0.005176918843005,No
1492639067.5,40.4533698505228,-79.94702397815841,1.7300000190734899,0.040863037109375,-0.92938232421875,0.265167236328125,0.005456817073572001,0.002090581455712,-0.008479238594703,No
1492639067.7,40.4533698505228,-79.94702397815841,1.7300000190734899,0.05339050292968799,-0.9561920166015621,0.17228698730468803,-0.020023509287979,0.0022554311271879997,-0.014071610567761001,No
1492639067.9,40.4533698505228,-79.94702397815841,1.7300000190734899,0.06080627441406299,-0.96600341796875,0.20027160644531197,-0.005444832848667,-0.006346046561549999,0.005291701085987,No
1492639068.1,40.4533698505228,-79.94702397815841,1.7300000190734899,0.05015563964843799,-0.9654083251953121,0.21385192871093803,-0.011654791878513999,-0.002052498252124,-0.005445099164776,No
1492639068.3,40.453368541528704,-79.9470280950616,0.0,0.06317138671875,-0.964935302734375,0.19334411621093803,-0.015981629701566004,-0.005215002046592999,-0.002282595370307,No
1492639068.5,40.453368541528704,-79.9470280950616,0.0,0.058929443359375,-0.9608612060546879,0.20182800292968803,-0.014946192669743,-0.005221393633209,-0.00013954964111999999,No
1492639068.7,40.453368541528704,-79.9470280950616,0.0,0.05995178222656299,-0.9624176025390621,0.20365905761718803,-0.016033561342821998,-0.006277869637644,0.000918257943859,No
1492639068.9,40.453368541528704,-79.9470280950616,0.0,0.05694580078125,-0.9627685546875,0.1964111328125,-0.0170676667941,-0.004143878656163,-0.000164050723149,No
1492639069.1,40.4533685397315,-79.94702810071391,0.0,0.062759399414063,-0.9577789306640621,0.20854187011718803,-0.014931545283746999,-0.005221659949318,-0.001205613025479,No
1492639069.3,40.4533685397315,-79.94702810071391,0.0,0.05767822265625,-0.963104248046875,0.19871520996093803,-0.014931545283746999,-0.005221659949318,-0.001205613025479,No
1492639069.5,40.4533685397315,-79.94702810071391,0.0,0.060760498046875,-0.9636383056640621,0.20033264160156197,-0.014931545283746999,-0.005221659949318,-0.001205613025479,No
1492639069.7,40.4533685397315,-79.94702810071391,0.0,0.06184387207031299,-0.9619293212890621,0.20367431640625,-0.014931545283746999,-0.005221659949318,-0.001205613025479,No
1492639069.9,40.4533685397315,-79.94702810071391,0.0,0.05833435058593799,-0.9615478515625,0.199798583984375,-0.014931545283746999,-0.005221659949318,-0.001205613025479,No
1492639070.1,40.4533685397315,-79.94702810071391,0.0,0.05955505371093799,-0.9642486572265621,0.202880859375,-0.014931545283746999,-0.005221659949318,-0.001205613025479,No
1492639070.3,40.453368537939504,-79.9470281063501,0.0,0.05853271484375,-0.9620513916015621,0.19987487792968803,-0.013834855546853,-0.000973918010642,-0.00120534670937,No
1492639070.5,40.453368537939504,-79.9470281063501,0.0,0.058074951171875,-0.9628143310546879,0.20237731933593803,-0.017051687827558996,-0.002016545577408,-0.00016937704532899998,No
1492639070.7,40.453368537939504,-79.9470281063501,0.0,0.05987548828125,-0.9647979736328121,0.20025634765625,-0.013873471382658998,-0.004164651312666,-0.000131293841741,No
1492639070.9,40.453368537939504,-79.9470281063501,0.0,0.058807373046875,-0.963409423828125,0.2021484375,-0.014939534767018,-0.006285326488696,-0.001202949864389,No
1492639071.1,40.453368537939504,-79.9470281063501,0.0,0.05903625488281299,-0.962860107421875,0.19972229003906197,-0.018132398597913997,-0.004136954437329,-0.00017496968361800002,No
1492639071.3,40.4533685360752,-79.9470281122134,0.0,0.0599365234375,-0.96148681640625,0.20249938964843803,-0.016004266570831,-0.006278402269862,-0.001213868824858,No
1492639071.5,40.4533685360752,-79.9470281122134,0.0,0.059539794921875,-0.963623046875,0.20379638671875,-0.013881460865928999,-0.005228317852044001,-0.000128630680651,No
1492639071.7,40.4533685360752,-79.9470281122134,0.0,0.0601806640625,-0.9610137939453121,0.19752502441406197,-0.013890781929744,-0.008419583786286,-0.0011867045817389999,No
1492639071.9,40.4533685360752,-79.9470281122134,0.0,0.05772399902343799,-0.962127685546875,0.19990539550781197,-0.016010924473556,-0.005214469414375,-0.00015046860158899998,No
1492639072.1,40.4533685360752,-79.9470281122134,0.0,0.059814453125,-0.96185302734375,0.19975280761718803,-0.014946192669743,-0.005221393633209,-0.00013954964111999999,No
1492639072.3,40.45336853427,-79.9470281178909,0.0,0.056915283203125,-0.96258544921875,0.20295715332031197,-0.014938203186472999,-0.004157727093832,-0.00014221280221000002,No
1492639072.5,40.45336853427,-79.9470281178909,0.0,0.057708740234375,-0.9611053466796879,0.20281982421875,-0.016004266570831,-0.006278402269862,-0.001213868824858,No
1492639072.7,40.45336853427,-79.9470281178909,0.0,0.059539794921875,-0.9630584716796879,0.19908142089843803,-0.010671286487948,-0.003121757429791,-0.000101200121423,No
1492639072.9,40.45336853427,-79.9470281178909,0.0,0.05683898925781299,-0.9615478515625,0.20326232910156197,-0.014946192669743,-0.005221393633209,-0.00013954964111999999,No
1492639073.1,40.45336853427,-79.9470281178909,0.0,0.06060791015625,-0.9650421142578121,0.198272705078125,-0.011761318322116998,-0.008433432223954,-0.0011648666608010002,No
1492639073.3,40.453368634616396,-79.9470278022925,0.0,0.05926513671875,-0.9648284912109379,0.20167541503906197,-0.014946192669743,-0.005221393633209,-0.00013954964111999999,No
1492639073.5,40.453368634616396,-79.9470278022925,0.0,0.0584716796875,-0.964569091796875,0.200531005859375,-0.017082314180095,-0.004143612340054,0.00090201266121,No
1492639073.7,40.453368634616396,-79.9470278022925,0.0,0.05926513671875,-0.9650726318359379,0.200927734375,-0.012778113226308997,-0.002044508768854,-0.00119176458781,No
1492639073.9,40.453368634616396,-79.9470278022925,0.0,0.057037353515625,-0.9674835205078121,0.203460693359375,-0.017045029924834,-0.003080478432895,-0.0012327772685980002,No
1492639074.1,40.453368634616396,-79.9470278022925,0.0,0.059600830078125,-0.961944580078125,0.203521728515625,-0.014968829539008001,-0.006284793856478001,0.0009291769043289999,No
1492639074.3,40.453368632721,-79.94702780825371,0.0,0.05908203125,-0.9666595458984379,0.202911376953125,-0.019175825113007,-0.005194229390090999,-0.002315352251715,No
1492639074.5,40.453368632721,-79.94702780825371,0.0,0.058807373046875,-0.9637908935546879,0.20280456542968803,-0.014938203186472999,-0.004157727093832,-0.00014221280221000002,No
1492639074.7,40.453368632721,-79.94702780825371,0.0,0.05812072753906299,-0.9628753662109379,0.20362854003906197,-0.014931545283746999,-0.005221659949318,-0.001205613025479,No
1492639075.0,40.453368632721,-79.94702780825371,0.0,0.05928039550781299,-0.963287353515625,0.203033447265625,-0.011797270996833002,-0.007368966736249,0.002030660331185,No
1492639075.1,40.453368632721,-79.94702780825371,0.0,0.05839538574218799,-0.96148681640625,0.20390319824218803,-0.015980298121021003,-0.0030874026517289997,-0.001221858308128,No
1492639075.3,40.4533686309045,-79.9470278139668,0.0,0.05982971191406299,-0.9623565673828121,0.20130920410156197,-0.017061008891375,-0.00520781151165,-0.001227450946418,No
1492639075.5,40.4533686309045,-79.9470278139668,0.0,0.05738830566406299,-0.961456298828125,0.20794677734375,-0.014976819022279,-0.007348460395856,0.0009318400654189998,No
1492639075.7,40.4533686309045,-79.9470278139668,0.0,0.05961608886718799,-0.962188720703125,0.19944763183593803,-0.013866813479933997,-0.005228584168153,-0.00119469406501,No
1492639075.9,40.4533686309045,-79.9470278139668,0.0,0.060272216796875,-0.96441650390625,0.20143127441406197,-0.014952850572468,-0.004157460777723,0.000923850582148,No
1492639076.1,40.4533686309045,-79.9470278139668,0.0,0.059844970703125,-0.963287353515625,0.204803466796875,-0.014923555800476999,-0.004157993409941,-0.001208276186569,No
1492639076.3,40.4533692021986,-79.9470260171958,0.0,0.056793212890625,-0.959197998046875,0.20025634765625,-0.014960840055738,-0.0052211273171,0.000926513743239,No
1492639076.6,40.4533692021986,-79.9470260171958,0.0,0.05833435058593799,-0.961090087890625,0.200164794921875,-0.013881460865928999,-0.005228317852044001,-0.000128630680651,No
1492639076.7,40.4533692021986,-79.9470260171958,0.0,0.05841064453125,-0.96380615234375,0.20243835449218803,-0.012846023834106,-0.0052347094386599995,0.002014415048536,No
1492639076.9,40.4533692021986,-79.9470260171958,0.0,0.058990478515625,-0.9619903564453121,0.20135498046875,-0.011759986741571998,-0.006305832829090001,-0.00010412959862200001,No
1492639077.1,40.4533692021986,-79.9470260171958,0.0,0.058929443359375,-0.96099853515625,0.20208740234375,-0.013904097735195,-0.006291718075311999,0.000940095864798,No
1492639077.3,40.4533692003245,-79.9470260230902,0.0,0.05683898925781299,-0.96484375,0.199188232421875,-0.013866813479933997,-0.005228584168153,-0.00119469406501,No
1492639077.5,40.4533692003245,-79.9470260230902,0.0,0.06036376953125,-0.9637603759765621,0.1968994140625,-0.016024240279007,-0.0030866037034019997,0.001976331844948,No
1492639077.7,40.4533692003245,-79.9470260230902,0.0,0.05699157714843799,-0.9613800048828121,0.19953918457031197,-0.017061008891375,-0.00520781151165,-0.001227450946418,No
1492639077.9,40.4533692003245,-79.9470260230902,0.0,0.058502197265625,-0.9637451171875,0.19816589355468803,-0.017114272113176,-0.008398278497565,0.0009126653055700001,No
1492639078.1,40.453369198457295,-79.94702602896271,0.0,0.05784606933593799,-0.9599761962890621,0.198516845703125,-0.014923555800476999,-0.004157993409941,-0.001208276186569,No
1492639078.3,40.453369198457295,-79.94702602896271,0.0,0.05897521972656299,-0.964935302734375,0.20399475097656197,-0.014946192669743,-0.005221393633209,-0.00013954964111999999,No
1492639078.5,40.453369198457295,-79.94702602896271,0.0,0.05747985839843799,-0.96624755859375,0.20063781738281197,-0.010664628585222,-0.004185690285278,-0.001164600344692,No
1492639078.7,40.453369198457295,-79.94702602896271,0.0,0.061920166015625,-0.961639404296875,0.195404052734375,-0.015996277087561,-0.0052147357304839995,-0.001216531985948,No
1492639078.9,40.453369198457295,-79.94702602896271,0.0,0.05766296386718799,-0.96160888671875,0.206329345703125,-0.017127587918627,-0.006270412786591999,0.0030394657521070003,No
1492639079.2,40.4533686689121,-79.94702769442941,0.0,0.06004333496093799,-0.96514892578125,0.19718933105468803,-0.013866813479933997,-0.005228584168153,-0.00119469406501,No
1492639079.3,40.4533686689121,-79.94702769442941,0.0,0.05690002441406299,-0.966796875,0.20068359375,-0.014954182153013,-0.006285060172587,-0.00013688648003,No
1492639079.5,40.4533686689121,-79.94702769442941,0.0,0.06040954589843799,-0.9590606689453121,0.207122802734375,-0.018148377564454,-0.0062642875160840005,-0.000169643361438,No
1492639079.7,40.4533686689121,-79.94702769442941,0.0,0.05455017089843799,-0.9622039794921879,0.2086181640625,-0.016058861373178003,-0.011596468650641002,-0.000134489635049,No
1492639079.9,40.4533686689121,-79.94702769442941,0.0,0.061370849609375,-0.9623870849609379,0.202850341796875,-0.014906245253391999,9.69390636788843e-05,-0.000152865446571,No
1492639080.1,40.4533686689121,-79.94702769442941,0.0,0.057952880859375,-0.9630889892578121,0.20379638671875,-0.012832708028656,-0.007362575149633001,-0.000112385398001,No
1492639080.3,40.4533686670231,-79.9470277003706,0.0,0.063018798828125,-0.96551513671875,0.19499206542968803,-0.010649981199226999,-0.0041859566013869995,-0.0022306637290500004,No
1492639080.6,40.4533686670231,-79.9470277003706,0.0,0.05635070800781299,-0.963134765625,0.20542907714843803,-0.018163024950448997,-0.006264021199975001,0.000896420022921,No
1492639080.7,40.4533686670231,-79.9470277003706,0.0,0.060943603515625,-0.9628143310546879,0.202117919921875,-0.014907576833937,-0.002030660331185,-0.0012136025087489998,No
1492639080.9,40.4533686670231,-79.9470277003706,0.0,0.061370849609375,-0.96234130859375,0.201416015625,-0.014947524250288,-0.0073489930280740004,-0.001200286703299,No
1492639081.1,40.453368665126,-79.94702770633721,0.0,0.05534362792968799,-0.962921142578125,0.20558166503906197,-0.016010924473556,-0.005214469414375,-0.00015046860158899998,No
1492639081.3,40.453368665126,-79.94702770633721,0.0,0.062408447265625,-0.9632110595703121,0.199493408203125,-0.012831376448111002,-0.005234975754769,0.0009483516641769999,No
1492639081.5,40.453368665126,-79.94702770633721,0.0,0.0552978515625,-0.9629669189453121,0.20365905761718803,-0.018200309205711,-0.007327155107135,0.0030312099527279998,No
1492639081.7,40.453368665126,-79.94702770633721,0.0,0.067657470703125,-0.9649658203125,0.23509216308593803,-0.019267704170614,-0.011575429678029,0.0008988168679019999,No
1492639081.9,40.453368665126,-79.94702770633721,0.0,0.074493408203125,-0.92889404296875,0.399551391601562,0.030859911763511,-0.004455734819812001,-0.0007387608863880001,No
1492639082.1,40.453367056356605,-79.94703276606059,0.189999997615814,0.066665649414063,-0.901275634765625,0.415267944335938,-0.0033673008822959994,-0.019124692420077,0.002147306786931,No
1492639082.3,40.453367056356605,-79.94703276606059,0.189999997615814,0.08221435546875,-0.922088623046875,0.405914306640625,-0.024454210393543997,-0.003032807849382,-0.0045074001449590005,No
1492639082.5,40.453367056356605,-79.94703276606059,0.189999997615814,0.0399169921875,-0.916595458984375,0.42376708984375,-0.011021492171293001,-0.024391626107927004,0.013810887097042,No
1492639082.7,40.453367056356605,-79.94703276606059,0.189999997615814,0.15861511230468803,-0.8320770263671879,0.423690795898438,-0.09611295110874199,0.096359027193465,-0.005497563438251,No
1492639082.9,40.453367056356605,-79.94703276606059,0.189999997615814,0.081954956054688,-0.8662109375,0.41583251953125,-0.06877560251907801,0.08659854179832499,-0.06276804373207799,No
1492639083.2,40.4533614634284,-79.94705035631841,2.04999995231628,0.13929748535156197,-0.882293701171875,0.384750366210938,-0.033012811188731006,0.06509484757648,-0.042088331551502996,No
1492639083.3,40.4533614634284,-79.94705035631841,2.04999995231628,0.047943115234375,-0.914520263671875,0.472259521484375,-0.034099380913483995,-0.009352222800031,-0.0035236284382840002,No
1492639083.5,40.4533614634284,-79.94705035631841,2.04999995231628,0.092422485351563,-0.9112396240234379,0.348251342773438,-0.020918331414244998,-0.070067501963876,0.011695005610973998,No
1492639083.7,40.4533614634284,-79.94705035631841,2.04999995231628,-0.07843017578125,-0.9362335205078121,0.425369262695312,-0.045679071649257004,-0.24858638036682998,0.166503228196735,No
1492639083.9,40.4533614634284,-79.94705035631841,2.04999995231628,0.079818725585938,-0.9049224853515621,0.35382080078125,0.033573939230411,0.040199884022528,-0.018951853265331,No
1492639084.1,40.4533614634284,-79.94705035631841,2.04999995231628,0.071990966796875,-0.980560302734375,0.303085327148438,-0.037838991716173,-0.010397779843996001,-0.041942922955985,No
1492639084.3,40.4533503004208,-79.9470854649732,4.19000005722046,0.108917236328125,-0.9515533447265621,0.25311279296875,-0.042771166055,0.07686229116910401,-0.023026756049261,No
1492639084.5,40.4533503004208,-79.9470854649732,4.19000005722046,0.099349975585938,-0.8634185791015621,0.299774169921875,-0.015358450006487,0.042645198535439,-0.021591578537817003,No
1492639084.7,40.4533503004208,-79.9470854649732,4.19000005722046,0.06025695800781299,-1.01390075683594,0.253677368164062,-0.032858347845507,0.112963570274,-0.027283286419535,No
1492639084.9,40.4533503004208,-79.9470854649732,4.19000005722046,0.093658447265625,-0.963531494140625,0.341949462890625,-0.06995005655980299,0.023854999148276,-0.011439874778544,No
1492639085.1,40.45333419914029,-79.9471361049367,5.050000190734861,-0.022750854492188,-0.85980224609375,0.289215087890625,-0.041449971838210996,0.060905961497894005,0.027140008352889,No
1492639085.3,40.45333419914029,-79.9471361049367,5.050000190734861,0.054290771484375,-0.921844482421875,0.32440185546875,-0.036804886264895,0.01087208883414,-0.028126443220654,No
1492639085.5,40.45333419914029,-79.9471361049367,5.050000190734861,0.221099853515625,-0.882080078125,0.240631103515625,-0.141392548594487,0.075358936733754,-0.131720213831428,No
1492639085.7,40.45333419914029,-79.9471361049367,5.050000190734861,0.115768432617188,-0.95782470703125,0.26702880859375,-0.005133775633346,-0.063785104952379,0.028899825201212998,No
1492639085.9,40.45333419914029,-79.9471361049367,5.050000190734861,0.091934204101563,-0.9008941650390621,0.308685302734375,0.028962942119047996,-0.03528422128246,0.043036150583462995,No
1492639086.1,40.45333419914029,-79.9471361049367,5.050000190734861,0.04156494140625,-0.9713287353515621,0.34478759765625,-0.057271811874372,0.018454641089812998,-0.007031277910027,No
1492639086.3,40.4533117449266,-79.94720672544159,6.42999982833862,0.159393310546875,-1.01356506347656,0.340179443359375,-0.092364019242237,-0.004721518296601,-0.023323964826913998,No
1492639086.5,40.4533117449266,-79.94720672544159,6.42999982833862,0.010421752929688,-0.9554595947265621,0.356307983398438,-0.015557388139915999,-0.022231269831654996,0.03508315262015899,No
1492639086.7,40.4533117449266,-79.94720672544159,6.42999982833862,-0.1912841796875,-0.870330810546875,0.359344482421875,0.03741821226394001,-0.111932926932139,0.006003031413148,No
1492639086.9,40.4533117449266,-79.94720672544159,6.42999982833862,0.007598876953125,-0.85736083984375,0.305130004882812,-0.039776707725315004,0.038547925198352005,-0.029294505674762997,No
1492639087.1,40.4533117449266,-79.94720672544159,6.42999982833862,0.018997192382813,-0.955810546875,0.360443115234375,-0.168105119592418,-0.025503495863035,-0.025112011182792996,No
1492639087.3,40.4532872952571,-79.9472836218334,7.73000001907349,0.016494750976563,-0.9962005615234379,0.359451293945312,-0.103957558415679,0.009182046806375,-0.024544757870606,No
1492639087.5,40.4532872952571,-79.9472836218334,7.73000001907349,-0.04322814941406299,-0.953094482421875,0.14628601074218803,0.143474341618602,0.025652899200188,-0.04231203708307,No
1492639087.7,40.4532872952571,-79.9472836218334,7.73000001907349,0.051300048828125,-1.10102844238281,0.253143310546875,-0.07699757975247999,-0.034601120462855,0.0046320360839750005,No
1492639087.9,40.4532872952571,-79.9472836218334,7.73000001907349,0.06144714355468799,-0.778900146484375,0.326309204101562,-0.238325487002864,-0.023983629828927,-0.029033515887935003,No
1492639088.1,40.4532872952571,-79.9472836218334,7.73000001907349,0.02142333984375,-0.9406890869140621,0.2969970703125,-0.13676024619440302,-0.106537628879748,0.052185440508430006,No
1492639088.3,40.45325870981421,-79.947373525601,8.560000419616701,-0.033721923828125,-0.8054962158203121,0.286590576171875,-0.051950816016394,-0.009239038453703,-0.021832328300361,No
1492639088.5,40.45325870981421,-79.947373525601,8.560000419616701,-0.013214111328125,-0.9608306884765621,0.232879638671875,0.000408262595109,-0.054249390353240994,0.018269817710162,No
1492639088.7,40.45325870981421,-79.947373525601,8.560000419616701,-0.003326416015625,-0.8495635986328121,0.23567199707031197,-0.149545283639547,0.017986723686286,-0.034630148918735996,No
1492639088.9,40.45325870981421,-79.947373525601,8.560000419616701,-0.026031494140625,-0.934661865234375,0.30841064453125,-0.043283291932622,0.128985946340244,-0.034894867131089996,No
1492639089.1,40.45325870981421,-79.947373525601,8.560000419616701,-0.069473266601563,-1.056396484375,0.1939697265625,-0.076625536148196,0.061122742810627,-0.047855673208178996,No
1492639089.3,40.4532264383079,-79.947481059461,8.96000003814697,-0.188262939453125,-0.931640625,0.350601196289062,-6.81769239060285e-05,0.087208938320171,-0.10258230202876199,No
1492639089.5,40.4532264383079,-79.947481059461,8.96000003814697,-0.064544677734375,-0.9641876220703121,0.22334289550781197,-0.112140387181057,0.013499030933394,0.030803452748402,No
1492639089.7,40.4532264383079,-79.947481059461,8.96000003814697,-0.021255493164063,-1.03385925292969,0.14990234375,0.089645730717593,-0.061235128208628,-0.12473740545324001,No
1492639089.9,40.4532264383079,-79.947481059461,8.96000003814697,-0.008697509765625,-1.00814819335938,0.265945434570312,0.151899518043177,0.04579918021442,-0.101985753944584,Yes
1492639090.1,40.4532264383079,-79.947481059461,8.96000003814697,0.008575439453125,-0.947479248046875,0.200469970703125,-0.019678629926814,0.073524551374908,-0.000391218364133,Yes
1492639090.3,40.4531974456379,-79.94757910783291,9.39000034332275,0.103225708007812,-1.1330261230468799,0.089508056640625,-0.013063870411274998,-0.487025584348241,0.45319784586594497,Yes
1492639090.5,40.4531974456379,-79.94757910783291,9.39000034332275,0.04103088378906299,-0.868804931640625,0.225616455078125,0.024314128120205003,0.17428418595362,-0.047114249160701,Yes
1492639090.7,40.4531974456379,-79.94757910783291,9.39000034332275,-0.8782958984375,-0.9987335205078121,0.22257995605468803,0.07208484648961098,0.987629561830359,-0.6010229937574101,Yes
1492639090.9,40.4531974456379,-79.94757910783291,9.39000034332275,-0.262191772460938,-1.13006591796875,0.390457153320312,-0.063631174241372,0.097192862930769,-0.121384485640831,Yes
1492639091.1,40.4531974456379,-79.94757910783291,9.39000034332275,0.03302001953125,-0.94525146484375,0.126434326171875,-0.044957354993846,0.10771527871378099,-0.079638103973294,Yes
1492639091.3,40.453165627543896,-79.9476862571454,9.88000011444092,-0.15919494628906197,-0.715789794921875,0.3179931640625,-0.016865266551254,-0.008402805871418,-0.017210412228528,Yes
1492639091.5,40.453165627543896,-79.9476862571454,9.88000011444092,0.7452545166015621,-0.933380126953125,0.095687866210938,-0.217267605947498,0.603369504993878,-0.6776288225135388,Yes
1492639091.7,40.453165627543896,-79.9476862571454,9.88000011444092,-0.030654907226563,-0.9677581787109379,0.429443359375,0.15420661449551198,-0.44771466349758093,0.314068717881917,Yes
1492639091.9,40.453165627543896,-79.9476862571454,9.88000011444092,-0.05168151855468799,-1.1058044433593799,0.296417236328125,-0.0023358585921089995,-0.025513882191286,0.0011081413295820001,No
1492639092.1,40.453165627543896,-79.9476862571454,9.88000011444092,0.086517333984375,-0.9326324462890621,0.3289794921875,-0.154129915456118,0.063751815438753,-0.063582971025642,No
1492639092.3,40.4531314178242,-79.94780186856049,10.770000457763699,0.120941162109375,-0.849029541015625,0.258895874023438,-0.30614821048391194,0.09452437551850901,-0.066285014267636,No
1492639092.5,40.4531314178242,-79.94780186856049,10.770000457763699,0.079559326171875,-0.9701690673828121,0.18208312988281197,-0.14720649557023902,-0.066047193982292,0.059437494472824995,No
1492639092.7,40.4531314178242,-79.94780186856049,10.770000457763699,0.04399108886718799,-0.9064788818359379,0.23381042480468803,-0.121278225513336,0.057169546488512996,0.022067485424615,No
1492639092.9,40.4531314178242,-79.94780186856049,10.770000457763699,-0.013214111328125,-0.842803955078125,0.253036499023438,0.075614866514511,-0.10791208631833801,0.095945704592285,No
1492639093.1,40.4531314178242,-79.94780186856049,10.770000457763699,-0.033004760742188,-0.94012451171875,0.385177612304688,0.086069105373617,-0.112233065186991,0.10779224406928399,No
1492639093.3,40.4530958206784,-79.9479246677893,11.210000038147,-0.090408325195313,-0.881317138671875,0.235107421875,-0.07337568066997201,-0.190985135465615,0.043456397403477,No
1492639093.5,40.4530958206784,-79.9479246677893,11.210000038147,0.028610229492188,-1.17243957519531,0.19432067871093803,0.06873538878661799,-0.0015177355052360003,-0.043007122127581,No
1492639093.7,40.4530958206784,-79.9479246677893,11.210000038147,0.025009155273438,-0.9344024658203121,0.425872802734375,-0.109385879665588,0.033673807771289,-0.081172883709506,No
1492639093.9,40.4530958206784,-79.9479246677893,11.210000038147,0.260269165039062,-1.28334045410156,0.03846740722656299,0.197484313789845,0.134840373364565,-0.193443233151759,No
1492639094.2,40.453059478291294,-79.9480500378722,11.5500001907349,0.303558349609375,-0.717193603515625,0.16505432128906197,-0.25017389069262697,0.04631902925920299,0.096477005229756,No
1492639094.3,40.453059478291294,-79.9480500378722,11.5500001907349,0.17039489746093803,-0.9139404296875,0.40838623046875,0.049439188792339994,0.08904572052399799,0.09303700004969999,No
1492639094.5,40.453059478291294,-79.9480500378722,11.5500001907349,-0.265121459960938,-1.09457397460938,-0.017425537109375,-0.022352443661253,0.153296878667141,-0.149894424058456,No
1492639094.7,40.453059478291294,-79.9480500378722,11.5500001907349,-0.021072387695313,-1.1525573730468799,0.06884765625,0.456806961775221,-0.1210169694104,0.170252426379349,No
1492639094.9,40.453059478291294,-79.9480500378722,11.5500001907349,0.629791259765625,-0.8448638916015621,0.343765258789062,-0.08230978717886099,-0.743992400033332,0.47021145048991597,No
1492639095.1,40.453059478291294,-79.9480500378722,11.5500001907349,0.49212646484375,-0.7856292724609379,0.15290832519531197,-0.091430048647946,-0.21532349835174103,0.10410855964948701,No
1492639095.3,40.45302289141421,-79.94817625137041,11.770000457763699,0.21435546875,-1.01860046386719,0.063308715820313,0.11570369671958301,-0.18158391050152697,0.005918076574374001,No
1492639095.5,40.45302289141421,-79.94817625137041,11.770000457763699,0.029022216796875,-0.623916625976562,0.385894775390625,-0.248521665552341,-0.112181666177953,0.12249209433819501,No
1492639095.7,40.45302289141421,-79.94817625137041,11.770000457763699,-0.09588623046875,-1.23255920410156,0.280487060546875,0.362769678420087,-0.267207469024773,0.11422377810182599,No
1492639095.9,40.45302289141421,-79.94817625137041,11.770000457763699,-0.05516052246093799,-1.3365478515625,0.251510620117188,-0.43456983298916796,-0.024843564544913002,-0.08541742985487501,No
1492639096.1,40.45302289141421,-79.94817625137041,11.770000457763699,0.72607421875,-1.3876647949218797,0.1241455078125,0.191096455599181,0.677351321127952,-0.36337048756200896,No
1492639096.3,40.452984390381395,-79.9483097018394,12.1599998474121,0.067367553710938,-1.03321838378906,0.18304443359375,-0.211229154491853,-0.00927206165122,-0.055449410740431,No
1492639096.5,40.452984390381395,-79.9483097018394,12.1599998474121,0.111923217773438,-1.095458984375,0.18592834472656197,0.0036242959274890006,0.008481901755793001,-0.026640133016281,No
