timestamp,latitude,longitude,speed,accelerometerX,accelerometerY,accelerometerZ,gyroX,gyroY,gyroZ,pothole
1493002780.6,40.44748919945229,-79.94419107212191,0.0,0.0864105224609375,-0.9623870849609379,0.19232177734375,-0.0106672917463124,-0.00844088907500615,-0.00328607446904877,No
1493002780.8,40.44748919945229,-79.94419107212191,0.0,0.07855224609375,-0.960906982421875,0.19935607910156197,-0.0139893188900772,-0.0137368512187377,0.00309086476114596,No
1493002781.0,40.44748919945229,-79.94419107212191,0.0,0.0815887451171875,-0.961212158203125,0.197479248046875,-0.00953731249579177,0.00218911841604513,-0.00223572373512152,No
1493002781.2,40.4474892077899,-79.9441910725754,0.0,0.0757598876953125,-0.9584197998046879,0.19895935058593803,-0.0104915231143672,0.0032578449614939302,-0.009711749547191959,No
1493002781.4,40.4474892077899,-79.9441910725754,0.0,0.080963134765625,-0.988800048828125,0.19378662109375,-0.0394656505099932,-0.0071892033626689,0.000680703974624253,No
1493002781.6,40.4474892077899,-79.9441910725754,0.0,0.158172607421875,-0.998565673828125,0.196624755859375,0.034215228420902,-0.0161813667833215,-0.0187997867670874,No
1493002781.8,40.4474892077899,-79.9441910725754,0.0,-0.038177490234375,-0.9345550537109379,0.222930908203125,0.0305605724569863,-0.140593333951354,0.10196604655251801,No
1493002782.0,40.4474892077899,-79.9441910725754,0.0,-0.0238037109375,-0.9451141357421879,0.279769897460938,0.0102331964886295,-0.0298484431814991,0.0140425821118788,No
1493002782.2,40.4474892077899,-79.9441910725754,0.0,0.0430755615234375,-0.9237213134765621,0.36328125,0.0026349315825244,-0.0276697110937053,0.0256875202943593,No
1493002782.4,40.447489216030704,-79.94419107302359,0.0,0.075897216796875,-0.9169464111328121,0.38751220703125,-0.0113285546449791,0.0160263708078788,-0.0193491968999707,No
1493002782.6,40.447489216030704,-79.94419107302359,0.0,0.097625732421875,-0.8798828125,0.416412353515625,-0.00422297454053865,-0.00103676861236785,-0.00323920283386338,No
1493002782.8,40.447489216030704,-79.94419107302359,0.0,0.0897216796875,-0.8899383544921879,0.453109741210938,-0.00952665985143145,-0.0041939460846567795,-0.0064839983060159204,No
1493002783.0,40.447489216030704,-79.94419107302359,0.0,0.110671997070312,-0.8866119384765621,0.467926025390625,-0.009477391371264991,0.0160175823762816,0.0009278453237836071,No
1493002783.2,40.4475037861359,-79.94419186552341,1.23000001907349,0.01129150390625,-0.852630615234375,0.439453125,-0.0115115138118675,-0.0701266241400755,0.0245860368675025,No
1493002783.4,40.4475037861359,-79.94419186552341,1.23000001907349,0.04461669921875,-0.8503265380859379,0.524566650390625,-0.0159432801818684,0.100076800075216,-0.10277804436888302,No
1493002783.6,40.4475037861359,-79.94419186552341,1.23000001907349,0.0917205810546875,-0.8604736328125,0.53106689453125,-0.0906734445822548,0.0473869568563249,-0.040500554909597995,No
1493002783.8,40.4475037861359,-79.94419186552341,1.23000001907349,0.112075805664062,-0.8954010009765621,0.474411010742188,-0.0418521091628132,-0.008234494090525,0.0187846067488739,No
1493002784.0,40.4475037861359,-79.94419186552341,1.23000001907349,0.058380126953125,-0.8828125,0.445159912109375,-0.0286612059675418,-0.00194224338299479,-0.00775192930100265,No
1493002784.2,40.447537888705504,-79.9441937204367,3.47000002861023,0.026092529296875,-0.864715576171875,0.474761962890625,-0.0410496987263724,-0.0412148147139573,0.0199441470874944,No
1493002784.4,40.447537888705504,-79.9441937204367,3.47000002861023,0.076751708984375,-0.87628173828125,0.437576293945312,-0.00295051617169879,0.0149097073628086,-0.009664611595897559,No
1493002784.6,40.447537888705504,-79.9441937204367,3.47000002861023,0.093841552734375,-0.9038238525390621,0.400741577148438,-0.00140641537167085,0.0319150561874006,-0.0352818244374788,No
1493002784.8,40.447537888705504,-79.9441937204367,3.47000002861023,0.045440673828125,-0.83245849609375,0.395889282226562,-0.0512035330145175,-0.0528440402460063,0.0550552628990991,No
1493002785.0,40.447537888705504,-79.9441937204367,3.47000002861023,0.12548828125,-0.8593597412109379,0.425048828125,-0.0268593111739942,-0.0338644901053386,-0.00125381624120931,No
1493002785.2,40.4475842295738,-79.9441962410177,6.01999998092651,0.032318115234375,-0.9404449462890621,0.369110107421875,-0.0235532629967698,-0.0423977908701705,-0.0139925146833853,No
1493002785.4,40.4475842295738,-79.9441962410177,6.01999998092651,0.072021484375,-0.93829345703125,0.424560546875,0.019862388042029,-0.0373582911394135,0.00669705119322226,No
1493002785.6,40.4475842295738,-79.9441962410177,6.01999998092651,0.08447265625,-0.89288330078125,0.400009155273438,-0.0454798671997192,0.0173132102466051,-0.0133048864899269,No
1493002785.8,40.4475842295738,-79.9441962410177,6.01999998092651,0.0870208740234375,-0.8726959228515621,0.371856689453125,0.00816178979276584,-0.0702480642857831,0.065303905722051,No
1493002786.0,40.4475842295738,-79.9441962410177,6.01999998092651,-0.0156097412109375,-0.875885009765625,0.320465087890625,-0.0235564587900779,-0.0987673237672237,0.0330663407266418,No
1493002786.2,40.4476537396833,-79.94420002182429,8.060000419616701,0.0404205322265625,-0.9363861083984379,0.335464477539062,-0.0294614858751106,-0.0753307072261993,0.010554906348311001,No
1493002786.4,40.4476537396833,-79.94420002182429,8.060000419616701,-0.039947509765625,-0.8857879638671879,0.329238891601562,-0.0380171571930991,-0.0933469920005854,0.0808839307312326,No
1493002786.6,40.4476537396833,-79.94420002182429,8.060000419616701,0.14128112792968803,-0.8743133544921879,0.315170288085938,-0.0322223849771957,0.024668062229077005,-0.0441083392383284,No
1493002786.8,40.4476537396833,-79.94420002182429,8.060000419616701,0.122772216796875,-0.9259490966796879,0.320907592773438,-0.0136604184954524,-0.0265085728584307,-0.0277930154521759,No
1493002787.0,40.4476537396833,-79.94420002182429,8.060000419616701,0.268905639648438,-0.943756103515625,0.303131103515625,-0.0248270529461547,-0.0253660767507867,0.0104734136189546,No
1493002787.2,40.4477403065615,-79.9442047303859,9.76000022888184,-0.02105712890625,-0.8672637939453121,0.34503173828125,-0.0456543042511194,-0.00395985422483882,-0.0121855598837666,No
1493002787.4,40.4477403065615,-79.9442047303859,9.76000022888184,-0.050994873046875,-0.915679931640625,0.3912353515625,0.0328269225446437,-0.0182961830049534,0.00358195166615658,No
1493002787.6,40.4477403065615,-79.9442047303859,9.76000022888184,0.083740234375,-0.9959869384765621,0.37042236328125,-0.0566829869573555,-0.0794018815846035,0.0518690569709283,No
1493002787.8,40.4477403065615,-79.9442047303859,9.76000022888184,0.112030029296875,-0.9794158935546879,0.263381958007812,0.00703154422613621,0.0446268567025668,-0.0224336700745005,No
1493002788.0,40.4477403065615,-79.9442047303859,9.76000022888184,0.0627899169921875,-0.927154541015625,0.2904052734375,0.0114630442800281,-0.0117735688631313,0.0118761005650994,No
1493002788.2,40.4478364946635,-79.9442099622668,11.029999732971199,-0.01190185546875,-0.9351806640625,0.300506591796875,-0.0492527675160344,0.0449911771396896,-0.0336730088229619,No
1493002788.4,40.4478364946635,-79.9442099622668,11.029999732971199,0.102981567382812,-0.9282684326171879,0.269912719726562,-0.088864092937655,-0.047287887263774,0.008808138989328071,No
1493002788.6,40.4478364946635,-79.9442099622668,11.029999732971199,0.0889129638671875,-0.9268951416015621,0.314697265625,0.0243356997250351,-0.0224965206762263,-0.000759000910672583,No
1493002788.8,40.4478364946635,-79.9442099622668,11.029999732971199,0.062103271484375,-0.96258544921875,0.270889282226562,-0.0964525041477268,0.0453022343550109,-0.00856792185900293,No
1493002789.0,40.4478364946635,-79.9442099622668,11.029999732971199,0.139923095703125,-0.9298248291015621,0.258255004882812,-0.0161289025098469,0.0681782554865735,-0.0291288570549597,No
1493002789.2,40.4479407847004,-79.9442156348296,11.6999998092651,0.120773315429688,-0.9905242919921879,0.17466735839843803,0.0038000645594340704,0.0318825656221016,-0.0266987225602624,No
1493002789.4,40.4479407847004,-79.9442156348296,11.6999998092651,-0.037628173828125,-1.00312805175781,0.28759765625,-0.0347827480491979,0.101271760456334,-0.0485970972556569,No
1493002789.6,40.4479407847004,-79.9442156348296,11.6999998092651,0.0948944091796875,-0.918182373046875,0.204833984375,-0.0675502821015329,0.0344743539949667,-0.0253034924651699,No
1493002789.8,40.4479407847004,-79.9442156348296,11.6999998092651,0.029083251953125,-0.989227294921875,0.280624389648438,-0.00560382356574473,-0.0659041822317549,0.0619531164385133,No
1493002790.0,40.4479407847004,-79.9442156348296,11.6999998092651,0.103363037109375,-0.8462066650390621,0.31903076171875,-0.0304942597458433,-0.0827710466796627,0.00416624920931996,No
1493002790.2,40.448061487405795,-79.9442222001133,12.1700000762939,0.20030212402343803,-1.00340270996094,0.262466430664062,-0.0117927436229799,0.0394262357258601,-0.0503345435508246,No
1493002790.4,40.448061487405795,-79.9442222001133,12.1700000762939,0.161590576171875,-0.9964599609375,0.253631591796875,-0.0620955955568326,0.0961260005980831,-0.0787174491844531,No
1493002790.6,40.448061487405795,-79.9442222001133,12.1700000762939,-0.0067901611328125,-0.940887451171875,0.24061584472656197,0.0487100152858763,-0.00669651856100424,0.0165092019135102,No
1493002790.8,40.448061487405795,-79.9442222001133,12.1700000762939,0.04327392578125,-0.9781951904296879,0.3106689453125,-0.00878150737842728,-0.0116417423891724,0.0127347037005409,No
1493002791.0,40.448061487405795,-79.9442222001133,12.1700000762939,-0.0643157958984375,-1.02464294433594,0.19438171386718803,-0.0902286966802116,0.114399014101553,-0.0364040805208381,No
1493002791.2,40.44817849335261,-79.9442285643223,12.220000267028801,0.14128112792968803,-0.98486328125,0.195220947265625,0.0219393873761818,-0.07884741144564901,0.0654671574968729,No
1493002791.4,40.44817849335261,-79.9442285643223,12.220000267028801,0.04266357421875,-0.8929290771484379,0.255126953125,0.0416244088896115,0.0305786819523988,0.00994317824591984,No
1493002791.6,40.44817849335261,-79.9442285643223,12.220000267028801,0.109649658203125,-0.8931732177734379,0.16864013671875,-0.007613444924318529,-0.10844498485246301,0.0300559034304163,No
1493002791.8,40.44817849335261,-79.9442285643223,12.220000267028801,-0.0155029296875,-0.9420928955078121,0.17646789550781197,0.0205460214938523,0.041338918020755,-0.0777299490522517,No
1493002792.0,40.44817849335261,-79.9442285643223,12.220000267028801,-0.0350189208984375,-0.890350341796875,0.24903869628906197,-0.0053803843502870895,0.00746990054156325,-0.0693782758737632,No
1493002792.2,40.4482971842492,-79.9442350201793,12.2600002288818,0.0451202392578125,-0.964996337890625,0.21809387207031197,-0.0038227014286997397,-0.0446478956751784,0.0214003635715497,No
1493002792.4,40.4482971842492,-79.9442350201793,12.2600002288818,0.02685546875,-0.943145751953125,0.213287353515625,-0.0546856161397961,-0.000716124017122307,-0.0506701018481746,No
1493002792.6,40.4482971842492,-79.9442350201793,12.2600002288818,0.0146942138671875,-1.0042724609375,0.23487854003906197,-0.0551609903943752,-0.0347494585355719,-0.0345939299279113,No
1493002792.8,40.4482971842492,-79.9442350201793,12.2600002288818,0.0743408203125,-0.929412841796875,0.269012451171875,0.0149011852473204,-0.122410335292729,0.088964227794642,No
1493002793.0,40.4482971842492,-79.9442350201793,12.2600002288818,0.092254638671875,-0.974761962890625,0.23497009277343803,0.0326484907516084,-0.0108462561715657,0.0206203236882655,No
1493002793.2,40.448383331815705,-79.94423970593358,12.020000457763699,0.11163330078125,-0.96441650390625,0.24151611328125,-0.0287498892318414,0.0480460892261195,-0.0515966155914132,No
1493002793.4,40.448383331815705,-79.94423970593358,12.020000457763699,0.089019775390625,-1.01554870605469,0.14434814453125,-0.0159470086073945,-0.00840706692916214,-0.00653885942447155,No
1493002793.6,40.448383331815705,-79.94423970593358,12.020000457763699,0.123992919921875,-0.9008331298828121,0.24139404296875,-0.00263759474361448,0.046818371963592995,-0.0150748233503935,No
1493002793.8,40.448383331815705,-79.94423970593358,12.020000457763699,0.1263427734375,-0.8915252685546879,0.17652893066406197,-0.0499033777703408,0.08647923218148901,-0.0412502347564553,No
1493002794.0,40.448383331815705,-79.94423970593358,12.020000457763699,0.005615234375,-0.9742431640625,0.16716003417968803,-0.0125088676401022,-0.0722361140395273,0.0960176099417169,No
1493002794.2,40.4485179883514,-79.9442573519684,12.3100004196167,0.313751220703125,-0.8863067626953121,0.16801452636718803,-0.0534978462936207,0.153514991560419,-0.0531883869749535,No
1493002794.4,40.4485179883514,-79.9442573519684,12.3100004196167,0.23997497558593803,-0.9387054443359379,0.176361083984375,-0.0358181850810207,0.112980081872759,-0.0443730574506822,No
1493002794.6,40.4485179883514,-79.9442573519684,12.3100004196167,0.138824462890625,-0.8551025390625,0.244171142578125,0.0175912442644094,0.0009677927401347949,0.115328723638099,No
1493002794.8,40.4485179883514,-79.9442573519684,12.3100004196167,0.18461608886718803,-0.9793701171875,0.18898010253906197,-0.0140593600267463,0.11284559223771,-0.000435160522118947,No
1493002795.0,40.4485179883514,-79.9442573519684,12.3100004196167,0.21405029296875,-0.93817138671875,0.23362731933593803,-0.0150343433018243,0.16709285206207902,-0.0549620522609463,No
1493002795.2,40.448623979166,-79.9442730540917,12.220000267028801,0.128921508789062,-0.8353424072265621,0.246429443359375,-0.110278038630764,0.106029231427652,0.0231202330035229,No
1493002795.4,40.448623979166,-79.9442730540917,12.220000267028801,0.082550048828125,-0.97076416015625,0.2120361328125,-0.0427884766020851,0.0375015692060598,-0.0431834233917439,No
1493002795.6,40.448623979166,-79.9442730540917,12.220000267028801,0.15415954589843803,-0.9259033203125,0.221221923828125,-0.0244131977127564,0.09481226323234698,-0.10924846055334,No
1493002795.8,40.448623979166,-79.9442730540917,12.220000267028801,0.150299072265625,-0.951080322265625,0.237823486328125,-0.031023163538332996,0.0406158697847985,-0.04520343107856901,No
1493002796.0,40.448623979166,-79.9442730540917,12.220000267028801,0.195770263671875,-0.91839599609375,0.18998718261718803,0.0117898141457808,0.0350157746445798,-0.0639424977728025,No
1493002796.2,40.448727786416896,-79.94430181947841,12.109999656677198,0.23475646972656197,-0.973388671875,0.22782897949218803,-0.024031566728547997,0.12673211310971,-0.0421554432109733,No
1493002796.4,40.448727786416896,-79.94430181947841,12.109999656677198,0.0823516845703125,-0.912811279296875,0.22657775878906197,0.0353950087838071,0.14868801208465,-0.0149483231986148,No
1493002796.6,40.448727786416896,-79.94430181947841,12.109999656677198,0.0947418212890625,-0.9725341796875,0.257919311523438,-0.0476673877191103,0.116250177375267,-0.0327744582711692,No
1493002796.8,40.448727786416896,-79.94430181947841,12.109999656677198,0.19451904296875,-0.827911376953125,0.19746398925781197,-0.11433989192535302,0.12839339299770097,0.0208885040100365,No
1493002797.0,40.448727786416896,-79.94430181947841,12.109999656677198,0.118576049804688,-0.84686279296875,0.399795532226562,-0.0727154830357415,0.00684698716259372,-0.0519404296881424,No
1493002797.2,40.4488301497509,-79.9443440560389,11.9899997711182,0.121917724609375,-0.8243560791015621,0.2667236328125,0.077502781411268,-0.205779794269333,0.13779994428397,No
1493002797.4,40.4488301497509,-79.9443440560389,11.9899997711182,-0.0772705078125,-0.812774658203125,0.22135925292968803,-0.0286316448794419,-0.10404384483499801,0.08953734006122699,No
1493002797.6,40.4488301497509,-79.9443440560389,11.9899997711182,-0.006805419921875,-1.0174560546875,0.193023681640625,-0.0245799115969953,-0.0211028884777879,0.0723053562278693,No
1493002797.8,40.4488301497509,-79.9443440560389,11.9899997711182,0.08953857421875,-0.921844482421875,0.13775634765625,0.0287403018519171,0.0391617838296152,-0.0552499399747839,No
1493002798.0,40.4488301497509,-79.9443440560389,11.9899997711182,0.0523681640625,-1.02134704589844,0.19578552246093803,0.0147113018615977,-0.0702925390759874,0.0536427222569211,No
1493002798.2,40.4489266988895,-79.94438389358021,11.8199996948242,0.228515625,-1.00894165039062,0.17961120605468803,0.0071085095816395,0.15310939212639998,-0.124003171940706,No
1493002798.4,40.4489266988895,-79.94438389358021,11.8199996948242,0.02880859375,-0.984619140625,0.267135620117188,0.0286185953901005,0.004070641726186121,0.0120108565162574,No
1493002798.6,40.4489266988895,-79.94438389358021,11.8199996948242,0.01995849609375,-1.0247802734375,0.21458435058593803,0.0334375853825989,-0.0299967812542165,0.0302737500075847,No
1493002798.8,40.4489266988895,-79.94438389358021,11.8199996948242,0.10162353515625,-0.96649169921875,0.1978759765625,0.00501925970647234,0.032936644781555,-0.0373511006044703,No
1493002799.0,40.4489266988895,-79.94438389358021,11.8199996948242,0.0211029052734375,-0.902008056640625,0.23968505859375,-0.0623712327296558,0.0184727505852256,-0.10091036949641001,No
1493002799.2,40.4490253309501,-79.94442467300291,11.770000457763699,0.0999755859375,-0.891693115234375,0.2327880859375,-0.13364354877068302,-0.0225407291503217,-0.051422178540013005,No
1493002799.4,40.4490253309501,-79.94442467300291,11.770000457763699,0.06365966796875,-0.9584503173828121,0.196319580078125,-0.0229021201102454,0.0150362075145874,-0.0301272761476304,No
1493002799.6,40.4490253309501,-79.94442467300291,11.770000457763699,0.021087646484375,-1.04086303710938,0.17543029785156197,0.0552262378410822,-0.00142132907377529,0.0101650195647234,No
1493002799.8,40.4490253309501,-79.94442467300291,11.770000457763699,0.15074157714843803,-0.9261627197265621,0.23194885253906197,-0.0184200199956421,0.0043787694643082796,0.0253892462522704,No
1493002800.0,40.4490253309501,-79.94442467300291,11.770000457763699,0.09271240234375,-0.9411773681640621,0.224090576171875,-0.00711809696156379,-0.00739186992162393,0.0489920440453157,No
1493002800.2,40.44912509965229,-79.9444665035042,11.640000343322802,0.0536956787109375,-0.9832916259765621,0.229461669921875,0.00627973385040684,0.0648405156923772,-0.0342218863236272,No
1493002800.4,40.44912509965229,-79.9444665035042,11.640000343322802,-0.025390625,-0.8978424072265621,0.24607849121093803,-0.0319430193788464,-0.0923190118198148,0.10440017578885,No
1493002800.6,40.44912509965229,-79.9444665035042,11.640000343322802,0.10504150390625,-0.986419677734375,0.16510009765625,-0.0027981833573462603,0.0755317758885003,-0.0652626267251548,No
1493002800.8,40.44912509965229,-79.9444665035042,11.640000343322802,0.02349853515625,-0.8965606689453121,0.257156372070312,-0.0168950939554627,-0.0488146775167164,0.0404691296087351,No
1493002801.0,40.44912509965229,-79.9444665035042,11.640000343322802,0.0244598388671875,-0.9113311767578121,0.24571228027343803,-0.0624284906930925,0.102514924053183,-0.0510157801576669,No
1493002801.2,40.4492276720233,-79.9445095095133,11.609999656677198,0.123184204101562,-0.94183349609375,0.15032958984375,-0.0465933348514813,0.0726267997714419,-0.0571738075462571,No
1493002801.4,40.4492276720233,-79.9445095095133,11.609999656677198,0.0814666748046875,-0.962646484375,0.18330383300781197,-0.0117179087963486,-0.0722504951094137,0.038450187186346005,No
1493002801.6,40.4492276720233,-79.9445095095133,11.609999656677198,0.00653076171875,-1.06283569335938,0.204620361328125,-0.0585203017934012,0.00569916473276957,-0.000613858631263264,No
1493002801.8,40.4492276720233,-79.9445095095133,11.609999656677198,0.0285186767578125,-1.02476501464844,0.22813415527343803,-0.0123504095552425,-0.0881961721362631,0.0758023530552524,No
1493002802.0,40.4492276720233,-79.9445095095133,11.609999656677198,-0.036834716796875,-0.961456298828125,0.16874694824218803,-0.0710885579258121,-0.00484721950005322,0.0557940237854871,No
1493002802.2,40.4493247966304,-79.9445502314122,11.5100002288818,-0.0076446533203125,-0.96893310546875,0.19947814941406197,-0.00718414335659775,0.0319579330809509,-0.0022884543247050897,No
1493002802.4,40.4493247966304,-79.9445502314122,11.5100002288818,-0.0775604248046875,-0.9423065185546879,0.220489501953125,0.00675670600164004,-0.0245034788737101,0.0374499038809123,No
1493002802.6,40.4493247966304,-79.9445502314122,11.5100002288818,0.0059814453125,-0.9544830322265621,0.15260314941406197,-0.0249349109703029,-0.0455765399472891,0.00732582352658997,No
1493002802.8,40.4493247966304,-79.9445502314122,11.5100002288818,-0.167205810546875,-0.971588134765625,0.288619995117188,-0.00258486415403091,-0.095720933796282,-0.0189712943412885,No
1493002803.0,40.4493247966304,-79.9445502314122,11.5100002288818,-0.050201416015625,-0.99761962890625,0.29730224609375,-0.0744225692944823,-0.0995031551764126,0.0144218162511061,No
1493002803.2,40.4494283059946,-79.9445936302789,11.779999732971199,0.0158538818359375,-1.01283264160156,0.277557373046875,-0.0463680314232606,-0.0911794451893699,-0.0077029271369451905,No
1493002803.4,40.4494283059946,-79.9445936302789,11.779999732971199,-0.055908203125,-0.9202728271484379,0.309890747070312,0.00182053692117817,-0.0489435745134762,-0.00411991020635258,No
1493002803.6,40.4494283059946,-79.9445936302789,11.779999732971199,-0.03997802734375,-0.9622650146484379,0.290878295898438,0.027930168248315,-0.0544264905657314,0.0302804079103099,No
1493002803.8,40.4494283059946,-79.9445936302789,11.779999732971199,-0.0036468505859375,-0.9156036376953121,0.251296997070312,-0.041237717899332,0.0417410553453569,-0.0762311219907551,No
1493002804.0,40.4494283059946,-79.9445936302789,11.779999732971199,0.119491577148438,-1.01211547851562,0.306900024414062,0.0180719448411687,-0.0501039138004238,0.0525588156932588,No
1493002804.2,40.4495356156297,-79.9446386225032,12.0500001907349,0.355743408203125,-0.9441680908203121,0.290512084960938,-0.29406970967596696,0.0157443420484394,0.0193390768878284,No
1493002804.4,40.4495356156297,-79.9446386225032,12.0500001907349,-0.23759460449218803,-1.1454162597656201,0.3121337890625,0.38569123960629004,0.0474878906616389,0.0123560021935316,No
1493002804.6,40.4495356156297,-79.9446386225032,12.0500001907349,-0.0833892822265625,-0.8950347900390621,0.294967651367188,0.00328634078515778,0.14887390072873802,-0.158150223437702,No
1493002804.8,40.4495356156297,-79.9446386225032,12.0500001907349,0.078216552734375,-0.98553466796875,0.27825927734375,-0.0164865650442445,0.0979590543763846,-0.0643944362097889,No
1493002805.0,40.4495356156297,-79.9446386225032,12.0500001907349,0.014892578125,-0.9317169189453121,0.238861083984375,-0.0607070233644652,-0.015562181829878001,-0.00804487702091136,No
1493002805.2,40.4496356911384,-79.9446805816409,12.0600004196167,0.0867919921875,-0.9750518798828121,0.275375366210938,0.0248203950434295,0.0030261499466570398,-0.0221441844640089,No
1493002805.4,40.4496356911384,-79.9446805816409,12.0600004196167,0.0924072265625,-0.957733154296875,0.24528503417968803,-0.0201819673728385,-0.0168903002655005,-0.0129576102837805,No
1493002805.6,40.4496356911384,-79.9446805816409,12.0600004196167,0.117523193359375,-0.9314117431640621,0.24540710449218803,-0.00516520093420868,0.00747842265705151,-0.00753568062048821,No
1493002805.8,40.4496356911384,-79.9446805816409,12.0600004196167,0.17033386230468803,-0.943115234375,0.280624389648438,0.013175456860948998,0.091385041225524,-0.0566102826595963,No
1493002806.0,40.4496356911384,-79.9446805816409,12.0600004196167,0.17169189453125,-1.02545166015625,0.252487182617188,0.00610849259231475,0.111638913947795,-0.0737943295933326,No
1493002806.2,40.4497386209811,-79.9447237375287,12.0100002288818,0.045745849609375,-0.9653167724609379,0.286849975585938,-0.042483544657271,0.0683465672674665,-0.0485909719851498,No
1493002806.4,40.4497386209811,-79.9447237375287,12.0100002288818,0.0998077392578125,-0.980438232421875,0.205810546875,-0.074849474017222,-0.0399343668618472,0.00040293627292898904,No
1493002806.6,40.4497386209811,-79.9447237375287,12.0100002288818,-0.0419158935546875,-0.94769287109375,0.31634521484375,-0.0477805720654386,0.0173177376204583,-0.0783675098172167,No
1493002806.8,40.4497386209811,-79.9447237375287,12.0100002288818,0.129837036132812,-0.94268798828125,0.189239501953125,-0.0335347907623868,-0.008298676272795909,-0.0440367002050052,No
1493002807.0,40.4497386209811,-79.9447237375287,12.0100002288818,0.0949554443359375,-0.8984527587890621,0.264556884765625,-0.035322570802157005,-0.0635968194633102,-0.0215218037172573,No
1493002807.2,40.4498436060905,-79.94476775513809,11.779999732971199,0.11065673828125,-0.9551849365234379,0.22554016113281197,-0.009972739334019721,-0.0265258834055162,0.0138271323796914,No
1493002807.4,40.4498436060905,-79.94476775513809,11.779999732971199,0.0655059814453125,-0.965087890625,0.19921875,0.0241905574456258,-0.0554720476096965,-0.00813888660739116,No
1493002807.6,40.4498436060905,-79.94476775513809,11.779999732971199,0.122207641601562,-0.927459716796875,0.24531555175781197,0.0463342092774166,-0.0141248737895623,0.0303648301168655,No
1493002807.8,40.4498436060905,-79.94476775513809,11.779999732971199,-0.0139923095703125,-0.9058990478515621,0.23602294921875,-0.0593805028254968,-0.0581139034110551,0.0272635790274682,No
1493002808.0,40.4498436060905,-79.94476775513809,11.779999732971199,0.060455322265625,-0.9766845703125,0.183929443359375,-0.00291855823861784,0.0308663033501274,-0.00330817870609643,No
1493002808.2,40.4499395270214,-79.944807972366,11.3100004196167,0.10321044921875,-0.9319000244140621,0.22651672363281197,-0.0167480874632903,0.0384027829189426,-0.00027057716675205095,No
1493002808.4,40.4499395270214,-79.944807972366,11.3100004196167,0.14274597167968803,-0.8912353515625,0.17607116699218803,0.0225945250043413,-0.0384344745359146,0.0397804361508406,No
1493002808.6,40.4499395270214,-79.944807972366,11.3100004196167,0.08648681640625,-0.90185546875,0.189849853515625,-0.0807843285064636,-0.0803134816257376,0.0228368726635385,No
1493002808.8,40.4499395270214,-79.944807972366,11.3100004196167,-0.0352783203125,-0.940032958984375,0.19987487792968803,-0.0114718327116253,0.0606966370362139,-0.0621145040005721,No
1493002809.0,40.4499395270214,-79.944807972366,11.3100004196167,0.127578735351562,-0.9998016357421879,0.15162658691406197,-0.0523151364535166,0.0567114827810194,-0.0369332506294369,No
1493002809.2,40.4500345316711,-79.9448478054203,10.8999996185303,0.0776519775390625,-0.8911895751953121,0.18901062011718803,0.0183236135641812,-0.0224493827249319,0.0492913833518406,No
1493002809.4,40.4500345316711,-79.9448478054203,10.8999996185303,0.131423950195312,-0.9441070556640621,0.21629333496093803,-0.0220664201601786,0.000140082273338168,-0.0215505658570302,No
1493002809.6,40.4500345316711,-79.9448478054203,10.8999996185303,0.075469970703125,-1.00729370117188,0.318161010742188,0.00039441415744073503,-0.0691300692601679,0.0886782042935675,No
1493002809.8,40.4500345316711,-79.9448478054203,10.8999996185303,0.0819549560546875,-0.9394378662109379,0.16107177734375,-0.0874784502224868,0.0090813793171702,0.0161403541025342,No
1493002810.0,40.4500345316711,-79.9448478054203,10.8999996185303,0.0742645263671875,-1.02818298339844,0.15995788574218803,0.0174391777661659,0.0243495481627035,-0.0158775001029434,No
1493002810.2,40.4501259471939,-79.94488613364409,10.3699998855591,-0.0168609619140625,-0.9679107666015621,0.16473388671875,0.00208152670800593,-0.0180977775037425,-0.00632926864668232,No
1493002810.4,40.4501259471939,-79.94488613364409,10.3699998855591,0.136947631835938,-0.946441650390625,0.114776611328125,0.0487616806110238,0.10816934767963901,-0.0797459619974417,No
1493002810.6,40.4501259471939,-79.94488613364409,10.3699998855591,0.061798095703125,-0.93023681640625,0.126571655273438,-0.00149749548095156,-0.0127509489831904,0.0245404968128622,No
1493002810.8,40.4501259471939,-79.94488613364409,10.3699998855591,0.0892486572265625,-0.976287841796875,0.136032104492188,0.0425040509976646,0.0156817577628226,0.0153216983834439,No
1493002811.0,40.4501259471939,-79.94488613364409,10.3699998855591,-0.0331878662109375,-0.927947998046875,0.15528869628906197,-0.00985129918831211,-0.133948214399388,0.101535147088143,No
1493002811.2,40.45020655452571,-79.944919930266,9.27000045776367,-0.0182037353515625,-0.91925048828125,0.116729736328125,0.00303919943599843,-0.0765999698017311,0.0471422123521466,No
1493002811.4,40.45020655452571,-79.944919930266,9.27000045776367,0.093292236328125,-0.9700469970703121,0.078643798828125,-0.0346727594961776,0.0268153690160078,-0.0196160456411966,No
1493002811.6,40.45020655452571,-79.944919930266,9.27000045776367,0.115921020507812,-1.01832580566406,0.0858917236328125,-0.0256062938811119,0.0607919782032388,-0.040935182799499,No
1493002811.8,40.45020655452571,-79.944919930266,9.27000045776367,0.0203399658203125,-1.00059509277344,0.070648193359375,-0.0028165591688678,-0.0329518247997684,0.0320426216036154,No
1493002812.0,40.45020655452571,-79.944919930266,9.27000045776367,0.128631591796875,-1.00848388671875,0.0131988525390625,-0.0322556744908217,0.0299877265065102,-0.0387913381219852,No
1493002812.2,40.45028367309779,-79.9449522641389,7.67000007629395,0.0350189208984375,-0.975494384765625,-0.014892578125,-0.0203223159622857,-0.0466620444076054,0.0585541239392452,No
1493002812.4,40.45028367309779,-79.9449522641389,7.67000007629395,-0.0239105224609375,-1.00025939941406,0.0191650390625,-0.0279014061085422,-0.00939030600361939,0.0104007093211955,No
1493002812.6,40.45028367309779,-79.9449522641389,7.67000007629395,0.062957763671875,-1.02394104003906,-0.02996826171875,-0.0345143014113179,0.0225572407490802,-0.0334642169934997,No
1493002812.8,40.45028367309779,-79.9449522641389,7.67000007629395,0.071197509765625,-1.01792907714844,0.0061492919921875,-0.0068624334969161795,-0.008460330150963721,0.0298055662879488,No
1493002813.0,40.45028367309779,-79.9449522641389,7.67000007629395,0.0599212646484375,-1.00234985351562,-0.05364990234375,-0.0277256374765969,0.00230842803288068,0.003975034243052271,No
1493002813.2,40.4503320704619,-79.9449725559334,5.15999984741211,0.0434417724609375,-1.02302551269531,-0.020111083984375,-0.0106499811992269,-0.00418595660138655,-0.00223066372905037,No
1493002813.4,40.4503320704619,-79.9449725559334,5.15999984741211,0.0150299072265625,-1.02914428710938,-0.0006866455078125,-0.009235043712067771,0.005375058028106929,-0.0224989175212074,No
1493002813.6,40.4503320704619,-79.9449725559334,5.15999984741211,0.017303466796875,-1.02156066894531,0.01239013671875,-0.0303778796062068,0.0140212768231582,-0.0291349823254669,No
1493002813.8,40.4503320704619,-79.9449725559334,5.15999984741211,0.014739990234375,-1.01467895507812,-0.0128326416015625,0.00281336337555971,-0.0351196379270929,0.008649148272250341,No
1493002814.0,40.4503320704619,-79.9449725559334,5.15999984741211,0.0729827880859375,-0.9839324951171879,0.147430419921875,0.0044546695553755395,0.00847923859470329,-0.00957219990607181,No
1493002814.2,40.4503649047122,-79.9449863225068,3.4000000953674303,0.0755462646484375,-0.9320526123046879,0.23277282714843803,-0.008137022394628109,0.0117503993616476,-0.0214379141429199,No
1493002814.4,40.4503649047122,-79.9449863225068,3.4000000953674303,0.114456176757812,-0.901275634765625,0.352096557617188,-0.00520381677001483,-0.0074142404747806,-0.0128287132870207,No
1493002814.6,40.4503649047122,-79.9449863225068,3.4000000953674303,0.0984649658203125,-0.9373779296875,0.374862670898438,-0.0177640834191555,-0.00519502833841757,0.04994359150280099,No
1493002814.8,40.4503649047122,-79.9449863225068,3.4000000953674303,0.0645294189453125,-0.9493865966796879,0.376358032226562,-0.0107831392537308,0.00539077067853839,0.012670255202161002,No
1493002815.0,40.4503649047122,-79.9449863225068,3.4000000953674303,0.125259399414062,-0.8282470703125,0.460296630859375,-0.0491547631879195,-0.0018058895351827301,0.0112297513685371,No
1493002815.2,40.450391458492,-79.9449974558371,2.97000002861023,0.14599609375,-0.984619140625,0.34393310546875,-0.0295621533643156,0.0140188799781771,-0.0110009858308993,No
1493002815.4,40.450391458492,-79.9449974558371,2.97000002861023,0.22406005859375,-0.7930908203125,0.410263061523438,0.0812812743658724,-0.0707319606558505,0.0138092892003879,No
1493002815.6,40.450391458492,-79.9449974558371,2.97000002861023,0.1800537109375,-0.9248809814453121,0.39117431640625,0.0826245728197084,-0.149441154040924,0.105720571057312,No
1493002815.8,40.450391458492,-79.9449974558371,2.97000002861023,-0.00396728515625,-0.9384918212890621,0.480178833007812,0.0334357211698358,-0.0725367849265972,0.0847604280139519,No
1493002816.0,40.450391458492,-79.9449974558371,2.97000002861023,0.0974273681640625,-0.9379119873046879,0.342178344726562,-0.0655521123356464,0.0280675873605631,-0.0967028412901942,No
1493002816.2,40.450391458492,-79.9449974558371,2.97000002861023,0.256332397460938,-0.8884124755859379,0.422271728515625,0.109774701184739,-0.0209151356209373,0.0598196580892508,No
1493002816.4,40.45043329820329,-79.94501499817319,4.949999809265139,0.043121337890625,-0.8961639404296879,0.389068603515625,0.0494293350963067,-0.0832791778156498,0.0774884003413815,No
1493002816.6,40.45043329820329,-79.94501499817319,4.949999809265139,0.117141723632812,-0.8974761962890621,0.408798217773438,-0.0483792506784885,0.0715705900831165,-0.0827785035307149,No
1493002816.8,40.45043329820329,-79.94501499817319,4.949999809265139,0.0856170654296875,-0.79437255859375,0.351104736328125,-0.08708217185228301,-0.0175086862706169,0.0503318803897345,No
1493002817.0,40.45043329820329,-79.94501499817319,4.949999809265139,0.051116943359375,-0.822906494140625,0.401412963867188,-0.0738446633379351,-0.0186639655514933,0.0163515427769775,No
1493002817.2,40.4504426957893,-79.945018938344,6.360000133514401,0.17802429199218803,-0.950164794921875,0.448165893554688,-0.0545271580549364,0.0418334670351827,-0.0390499310638319,No
1493002817.4,40.4504426957893,-79.945018938344,6.360000133514401,0.100692749023438,-0.8538055419921879,0.357528686523438,-0.0281237800595638,-0.0136415100517129,0.0242701859622191,No
1493002817.6,40.4504426957893,-79.945018938344,6.360000133514401,0.067413330078125,-0.95550537109375,0.310745239257812,-0.0967648929435931,0.0421040442019347,-0.0650722107072141,No
1493002817.8,40.4504426957893,-79.945018938344,6.360000133514401,0.131637573242188,-0.9978485107421879,0.376693725585938,0.0348264238910752,0.0125304392449318,-0.0476554034942049,No
1493002818.0,40.4504426957893,-79.945018938344,6.360000133514401,0.0583648681640625,-0.9255523681640621,0.461990356445312,0.0652170866705144,0.17717957469075402,-0.232224184945492,No
1493002818.2,40.4504426957893,-79.945018938344,7.94000005722046,0.234344482421875,-0.9400482177734379,0.371322631835938,0.0728592937346058,-0.0462106386028369,0.0200570651177138,No
1493002818.4,40.4504426957893,-79.945018938344,7.94000005722046,0.3363037109375,-0.8206787109375,0.376480102539062,0.10887322115574699,-0.12727992534593902,0.0675484178887698,No
1493002818.6,40.4504426957893,-79.945018938344,7.94000005722046,0.201873779296875,-0.873870849609375,0.387893676757812,-0.00276010015375812,0.0149062452533915,-0.0235234355925609,No
1493002818.8,40.4504426957893,-79.945018938344,7.94000005722046,0.13458251953125,-0.929046630859375,0.42523193359375,0.0842807927016286,0.0366709292620641,-0.0685356517048622,No
1493002819.0,40.4504426957893,-79.945018938344,7.94000005722046,0.0539398193359375,-0.9099578857421879,0.400665283203125,-0.0516136598223897,0.191777958522132,-0.169485169669297,No
1493002819.2,40.4506271049923,-79.9450983084728,9.30000019073486,0.193511962890625,-0.845001220703125,0.341781616210938,-0.0578478536181562,0.0737708937757399,-0.0125109981689742,No
1493002819.4,40.4506271049923,-79.9450983084728,9.30000019073486,0.046173095703125,-0.882354736328125,0.369033813476562,0.0283890309041357,-0.0512309635737453,0.07612406291493401,No
1493002819.6,40.4506271049923,-79.9450983084728,9.30000019073486,-0.0370330810546875,-0.899688720703125,0.416534423828125,-0.0155880144924518,-0.0711660559135334,0.010686200190051998,No
1493002819.8,40.4506271049923,-79.9450983084728,9.30000019073486,0.1201171875,-0.939208984375,0.29486083984375,-0.0199068628322333,-0.014755244019584,0.0456814684942382,No
1493002820.0,40.4506271049923,-79.9450983084728,9.30000019073486,-0.083282470703125,-0.9352874755859379,0.3648681640625,0.0264206885424581,-0.0863258341027005,0.0452742711635651,No
1493002820.2,40.45071378093729,-79.9451356151427,10.239999771118198,0.0162506103515625,-0.94683837890625,0.375762939453125,0.00542885388212653,-0.0542909356662463,-0.0371218024346145,No
1493002820.4,40.45071378093729,-79.9451356151427,10.239999771118198,-0.0630340576171875,-0.9351348876953121,0.313278198242188,-0.0367881083500276,-0.07209310228899,0.0030080404512445,No
1493002820.6,40.45071378093729,-79.9451356151427,10.239999771118198,-0.004913330078125,-0.9715576171875,0.284423828125,-0.0244193229832636,-0.108325941551736,0.0906577319318234,No
1493002820.8,40.45071378093729,-79.9451356151427,10.239999771118198,0.042266845703125,-0.896087646484375,0.23384094238281197,-0.0287424323807892,-0.0030045783418274,-0.00241894921811897,No
1493002821.0,40.45071378093729,-79.9451356151427,10.239999771118198,-0.0118865966796875,-0.9306488037109379,0.221893310546875,0.00550475397319379,-0.00322934913783008,-0.0148623030954052,No
1493002821.2,40.4508046095989,-79.9451747092062,10.4499998092651,0.0796661376953125,-0.9585723876953121,0.273788452148438,-0.0275839573066047,0.0225058417400416,-0.0728430484519563,No
1493002821.4,40.4508046095989,-79.9451747092062,10.4499998092651,0.108169555664062,-0.935791015625,0.260269165039062,-0.0149856074538759,0.041574607777227005,-0.049306563370054,No
1493002821.6,40.4508046095989,-79.9451747092062,10.4499998092651,0.0514678955078125,-0.9620208740234379,0.282867431640625,-0.0217854566651752,0.027794080716612005,-0.0269501249671659,No
1493002821.8,40.4508046095989,-79.9451747092062,10.4499998092651,0.100433349609375,-0.9015960693359379,0.23670959472656197,-0.0273288264741751,0.0161307667226099,-0.0173808545382931,No
1493002822.0,40.4508046095989,-79.9451747092062,10.4499998092651,0.09881591796875,-0.937255859375,0.237762451171875,-0.000149935969371461,0.0223303394242054,-0.0544360779456557,No
1493002822.2,40.4508931776184,-79.94521283025429,10.2200002670288,0.09051513671875,-0.9407958984375,0.249176025390625,-0.0706925458717173,0.03555799424252,-0.0285371026607441,No
1493002822.4,40.4508931776184,-79.94521283025429,10.2200002670288,0.04620361328125,-1.00080871582031,0.211639404296875,-0.0482932305752789,0.0641347780035062,-0.0155869492280158,No
1493002822.6,40.4508931776184,-79.94521283025429,10.2200002670288,-0.029327392578125,-0.9115753173828121,0.302947998046875,-0.00541873386998423,-0.0744180419206292,0.0438513441931357,No
1493002822.8,40.4508931776184,-79.94521283025429,10.2200002670288,0.0770416259765625,-1.0125732421875,0.271926879882812,-0.00652767414789322,0.0276907500663169,-0.0523827807452046,No
1493002823.0,40.4508931776184,-79.94521283025429,10.2200002670288,0.113784790039062,-0.9327545166015621,0.30419921875,-0.0360450864058955,-0.0199798334461015,-0.0227079756667786,No
1493002823.2,40.450977941995895,-79.9452493141559,9.98999977111816,0.100509643554688,-0.9501953125,0.292892456054688,-0.0455504409686063,0.0215697406168788,-0.00585309544377615,No
1493002823.4,40.450977941995895,-79.9452493141559,9.98999977111816,0.0697479248046875,-0.9078216552734379,0.263961791992188,-0.000766990393942821,-0.0319004088014051,0.0384581766696163,No
1493002823.6,40.450977941995895,-79.9452493141559,9.98999977111816,-0.0852508544921875,-0.9910736083984379,0.299911499023438,0.0286806470434993,-0.0533638892907898,0.053742058165580996,No
1493002823.8,40.450977941995895,-79.9452493141559,9.98999977111816,0.0827789306640625,-0.88519287109375,0.22166442871093803,-0.0223553731384522,0.0065282067801112394,0.0029529130166798603,No
1493002824.0,40.450977941995895,-79.9452493141559,9.98999977111816,0.174713134765625,-1.0072021484375,0.20973205566406197,-0.0357303007650481,0.0895746243164881,-0.0635036088251574,No
1493002824.2,40.451058451167896,-79.9452839665512,9.81999969482422,0.0633697509765625,-0.9804229736328121,0.192535400390625,0.0519409623203604,-0.06947042124748,0.0572204128653335,No
1493002824.4,40.451058451167896,-79.9452839665512,9.81999969482422,0.0187835693359375,-0.9868011474609379,0.2398681640625,-0.0019036275471886399,-0.0297645536071616,0.0448383116931191,No
1493002824.6,40.451058451167896,-79.9452839665512,9.81999969482422,0.02490234375,-0.971282958984375,0.19850158691406197,-0.0920923768110491,0.0314431440422385,-0.0234145123039767,No
1493002824.8,40.451058451167896,-79.9452839665512,9.81999969482422,0.14225769042968803,-0.978790283203125,0.21714782714843803,-0.0250363774078349,0.0820578521397395,-0.0708382207833447,No
1493002825.0,40.451058451167896,-79.9452839665512,9.81999969482422,0.154449462890625,-0.923126220703125,0.21229553222656197,-0.0166772473782942,-0.0679548162711159,0.0916990279180444,No
1493002825.2,40.451139376719,-79.9453187981624,9.43000030517578,-0.06500244140625,-1.00997924804688,0.273178100585938,0.014519021630893999,-0.124531010468759,0.11562113872579,No
1493002825.4,40.451139376719,-79.9453187981624,9.43000030517578,-0.102447509765625,-0.9401702880859379,0.12646484375,-0.0199012701939441,-0.17855749423876102,0.111143299668931,No
1493002825.6,40.451139376719,-79.9453187981624,9.43000030517578,-0.011993408203125,-0.9799346923828121,0.134307861328125,-0.05713545802656,0.0535455168771332,-0.0753581377854272,No
1493002825.8,40.451139376719,-79.9453187981624,9.43000030517578,0.058074951171875,-0.9559326171875,0.0283050537109375,-0.0105080347131256,-0.0626857520543941,0.033106820775211,No
1493002826.0,40.451139376719,-79.9453187981624,9.43000030517578,0.003875732421875,-0.999176025390625,0.060943603515625,0.00975116433132513,-0.0511159150146539,0.0375492397895722,No
1493002826.2,40.4512138372373,-79.94535084712341,8.10999965667725,0.0155181884765625,-0.98577880859375,0.028045654296875,-0.007415305739216629,0.0649278673761318,-0.0450244666533156,No
1493002826.4,40.4512138372373,-79.94535084712341,8.10999965667725,0.055267333984375,-1.03175354003906,0.0330657958984375,-0.0531513690358014,0.007791344085135821,-0.00269671691981424,No
1493002826.6,40.4512138372373,-79.94535084712341,8.10999965667725,0.0999298095703125,-0.979736328125,0.0008392333984375,-0.00194437391186685,0.00320191857860227,-0.0117565246321548,No
1493002826.8,40.4512138372373,-79.94535084712341,8.10999965667725,0.0399169921875,-1.02711486816406,-0.03546142578125,-0.0250307847695458,-0.0349366787602045,0.0200919525279938,No
1493002827.0,40.4512138372373,-79.94535084712341,8.10999965667725,0.0503997802734375,-0.99786376953125,0.0081939697265625,-0.0320804384910945,-0.0104278735643143,0.00396331633425592,No
1493002827.2,40.4512729096871,-79.9453762728212,5.71000003814697,0.0142669677734375,-1.04025268554688,-0.0399932861328125,-0.0231924046690641,0.0192967326264961,-0.00668453433609889,No
1493002827.4,40.4512729096871,-79.9453762728212,5.71000003814697,0.0167999267578125,-1.02787780761719,0.0037841796875,-0.008440622758897141,0.0181387901845297,0.0041316281151489295,No
1493002827.6,40.4512729096871,-79.9453762728212,5.71000003814697,0.028656005859375,-1.012939453125,0.0092926025390625,-0.0033007218550442103,-0.00636016131532724,0.004247475622567379,No
1493002827.8,40.4512729096871,-79.9453762728212,5.71000003814697,0.0436248779296875,-1.02487182617188,0.00506591796875,-0.00880148108660287,0.0032519860070957603,0.0222919899045083,No
1493002828.0,40.4512729096871,-79.9453762728212,5.71000003814697,0.0183258056640625,-1.00381469726562,-0.0096588134765625,-0.008906675949661,-0.012703278399678001,0.0212658739365007,No
1493002828.2,40.4513049522638,-79.94539006444279,3.00999999046326,0.0182647705078125,-1.01466369628906,0.014892578125,-0.0139533662153612,-0.00309938687663422,0.0062624233033213295,No
1493002828.4,40.4513049522638,-79.94539006444279,3.00999999046326,0.0361480712890625,-0.9829559326171879,0.12725830078125,-0.00405519539186366,-0.0021036309450535896,-0.0160293002850779,No
1493002828.6,40.4513049522638,-79.94539006444279,3.00999999046326,0.059112548828125,-0.962310791015625,0.22819519042968803,0.00208285828855097,-0.0159701781088782,-0.00526853158450376,No
1493002828.8,40.4513049522638,-79.94539006444279,3.00999999046326,0.059051513671875,-0.916259765625,0.31817626953125,-0.0032567796970579,-0.0063609602636542605,0.0010492854694912198,No
1493002829.0,40.4513049522638,-79.94539006444279,3.00999999046326,0.0708160400390625,-0.9005279541015621,0.428314208984375,0.0192517252040738,-0.00225383323053406,-0.007260576079883029,No
1493002829.2,40.4513213814543,-79.9453971358209,1.26999998092651,0.0753021240234375,-0.866607666015625,0.471572875976562,-0.00638839082288208,4.15453130052361e-05,-6.551376281594929e-05,No
1493002829.4,40.4513213814543,-79.9453971358209,1.26999998092651,0.096832275390625,-0.8653106689453121,0.463836669921875,-0.00140348589447176,-0.0776327436724638,0.0598939602836641,No
1493002829.6,40.4513213814543,-79.9453971358209,1.26999998092651,0.112319946289062,-0.8193206787109379,0.5045166015625,-0.0103477124155029,0.0224038426702916,-0.00975968644681338,No
1493002829.8,40.4513213814543,-79.9453971358209,1.26999998092651,0.130355834960938,-0.9265594482421879,0.514068603515625,-0.0158210410878337,-0.069034195460925,0.02880395140197,No
1493002830.0,40.4513213814543,-79.9453971358209,1.26999998092651,0.0260772705078125,-0.782501220703125,0.559280395507812,-0.011529623307280001,-0.0243948219012348,-0.0267104404690587,No
1493002830.2,40.4513428972876,-79.945406396569,3.16000008583069,0.08099365234375,-0.9457855224609379,0.482131958007812,-0.0255069579724519,0.00442058109342253,-0.0013387710799828301,No
1493002830.4,40.4513428972876,-79.945406396569,3.16000008583069,0.0909423828125,-0.876129150390625,0.565032958984375,0.0318926856342439,0.0380903941230763,0.0247511528550874,No
1493002830.6,40.4513428972876,-79.945406396569,3.16000008583069,-0.0398101806640625,-0.85430908203125,0.5955810546875,-0.0413349232791199,0.0502533171375772,-0.0645257300515299,No
1493002830.8,40.4513428972876,-79.945406396569,3.16000008583069,0.103652954101562,-0.8706207275390621,0.557632446289062,-0.0307480589977279,0.0193470663710986,0.000701476631126871,No
1493002831.0,40.4513428972876,-79.945406396569,3.16000008583069,0.11053466796875,-0.850189208984375,0.465850830078125,0.0152945341403251,0.019057048128388997,0.0598153970315067,No
1493002831.2,40.451380369997004,-79.94542252540391,5.42000007629395,0.023406982421875,-0.861297607421875,0.498550415039062,-0.0207172627519444,-0.0413482390845703,0.0126891636459005,No
1493002831.4,40.451380369997004,-79.94542252540391,5.42000007629395,-0.004180908203125,-0.8322906494140621,0.54803466796875,-0.0524741271705943,0.0205572067704306,0.0324623357914119,No
1493002831.6,40.451380369997004,-79.94542252540391,5.42000007629395,0.128204345703125,-0.8663177490234379,0.442367553710938,-0.0538400624936959,0.0747991402726195,-0.0711143905883859,No
1493002831.8,40.451380369997004,-79.94542252540391,5.42000007629395,0.07806396484375,-0.876800537109375,0.483627319335938,0.00014567491162733402,0.0499840715513702,-0.06090170044015,No
1493002832.0,40.451380369997004,-79.94542252540391,5.42000007629395,0.0439605712890625,-0.834075927734375,0.460174560546875,-0.08799057610010902,-0.00900654449053898,-0.0339302701842635,No
1493002832.2,40.451377471224106,-79.94542127772709,7.630000114440921,0.0731964111328125,-1.08320617675781,0.418350219726562,-0.136566900699263,0.0519295107276731,-0.10815363502920801,No
1493002832.4,40.451377471224106,-79.94542127772709,7.630000114440921,0.085662841796875,-0.7947540283203121,0.359619140625,0.1328605794102,-0.0582947320490715,0.0644173393951636,No
1493002832.6,40.451377471224106,-79.94542127772709,7.630000114440921,0.154266357421875,-0.9577789306640621,0.447174072265625,-0.15369102650847302,0.0701391409971989,-0.0145491153512119,No
1493002832.8,40.451377471224106,-79.94542127772709,7.630000114440921,0.0020904541015625,-0.953704833984375,0.435028076171875,-0.0549945428262453,0.0439695885455352,-0.0038751657021743,No
1493002833.0,40.451377471224106,-79.94542127772709,7.630000114440921,-0.11181640625,-1.0103759765625,0.461334228515625,0.0164665913360689,-0.11817111546954101,0.054850465811272,No
1493002833.2,40.4515207874555,-79.9454836353437,9.77000045776367,-0.024200439453125,-0.8964385986328121,0.374191284179688,0.0119006016471281,-0.0309177023591659,0.0471150481090278,No
1493002833.4,40.4515207874555,-79.9454836353437,9.77000045776367,0.2164306640625,-0.945281982421875,0.294891357421875,0.00719319810430402,-0.194683999903627,0.145581168356964,No
1493002833.6,40.4515207874555,-79.9454836353437,9.77000045776367,0.102127075195312,-0.886810302734375,0.366485595703125,-0.00599637351042241,0.06916975036041,-0.0684775947930985,No
1493002833.8,40.4515207874555,-79.9454836353437,9.77000045776367,0.0600128173828125,-0.9253997802734379,0.381072998046875,-0.0921451074006326,0.103770870823265,-0.0577205545180504,No
1493002834.0,40.4515207874555,-79.9454836353437,9.77000045776367,0.071075439453125,-0.8518218994140621,0.313995361328125,-0.0553998759441553,-0.0815403999399371,0.0348282881038383,No
1493002834.2,40.451609161379,-79.94552209743391,11.0900001525879,0.0391387939453125,-0.8765869140625,0.315216064453125,-0.057709102925363,-0.0293965047445126,0.0762524272794758,No
1493002834.4,40.451609161379,-79.94552209743391,11.0900001525879,0.15596008300781197,-0.9399261474609379,0.33636474609375,-0.0206472216152753,-0.0743152439025521,0.067151873202457,No
1493002834.6,40.451609161379,-79.94552209743391,11.0900001525879,0.17295837402343803,-0.9163970947265621,0.311248779296875,-0.00891786122623934,-0.0467326181764925,0.0810615635759409,No
1493002834.8,40.451609161379,-79.94552209743391,11.0900001525879,0.111358642578125,-0.8614654541015621,0.306472778320312,-0.0230485939701998,0.0384427303352938,-0.00673247123572031,No
1493002835.0,40.451609161379,-79.94552209743391,11.0900001525879,0.0963897705078125,-0.8681182861328121,0.364852905273438,-0.0350735652402346,0.0183121619714939,0.004924717487774529,No
1493002835.2,40.451708525806396,-79.9455653428101,12.0,0.0555572509765625,-0.877105712890625,0.359268188476562,-0.0375878556253784,-0.0465595127056373,-0.00239711129718032,No
1493002835.4,40.451708525806396,-79.9455653428101,12.0,0.0361328125,-0.932952880859375,0.325057983398438,-0.0457594991141775,0.015190670857812,0.00588958075071024,No
1493002835.6,40.451708525806396,-79.9455653428101,12.0,0.007232666015625,-0.922088623046875,0.314041137695312,0.0441589392990399,-0.0683521599057557,0.0816607748212087,No
1493002835.8,40.451708525806396,-79.9455653428101,12.0,-0.0052947998046875,-0.9899444580078121,0.326950073242188,-0.00376597609748105,-0.0520831751225707,0.0907240446429664,No
1493002836.0,40.451708525806396,-79.9455653428101,12.0,0.0045166015625,-0.92974853515625,0.27490234375,-0.0223732163177557,-0.0381391299710248,0.0574449173452272,No
1493002836.2,40.4518137297839,-79.9456111296747,12.630000114440902,0.0332183837890625,-0.9535675048828121,0.275604248046875,0.0734539776060205,-0.0600385699308554,0.0467541897813221,No
1493002836.4,40.4518137297839,-79.9456111296747,12.630000114440902,0.0575714111328125,-0.962860107421875,0.298202514648438,-0.0441906309160118,-0.0145997154119234,0.0305054450224216,No
1493002836.6,40.4518137297839,-79.9456111296747,12.630000114440902,0.0388946533203125,-0.88775634765625,0.294815063476562,0.0228022515693674,-0.0224810743419039,0.0333441084283371,No
1493002836.8,40.4518137297839,-79.9456111296747,12.630000114440902,0.0279388427734375,-0.8913726806640621,0.323135375976562,-0.0272840853678618,0.00124902255124716,0.0487632785076779,No
1493002837.0,40.4518137297839,-79.9456111296747,12.630000114440902,0.0092620849609375,-0.9608917236328121,0.31207275390625,-0.0043974115919388395,0.0127959564056127,0.0169813803747813,No
1493002837.2,40.451927793490206,-79.9456607724695,13.0799999237061,-0.0089874267578125,-1.0030517578125,0.31988525390625,0.0154894775321189,0.0307429989916567,-0.025509887449651002,No
1493002837.4,40.451927793490206,-79.9456607724695,13.0799999237061,-0.005584716796875,-0.96759033203125,0.291351318359375,0.0659140359277882,0.0325382358824791,-0.0516536072387409,No
1493002837.6,40.451927793490206,-79.9456607724695,13.0799999237061,-0.019622802734375,-0.9717254638671879,0.325637817382812,-0.00262800736369019,-0.0637933607517581,0.0790375611474806,No
1493002837.8,40.451927793490206,-79.9456607724695,13.0799999237061,0.0381927490234375,-0.9660186767578121,0.289520263671875,-0.0957587506837611,0.0420981852475366,-0.0607970382093099,No
1493002838.0,40.451927793490206,-79.9456607724695,13.0799999237061,0.0407867431640625,-0.974090576171875,0.314605712890625,0.067385698746166,0.011260111404964,-0.0153323510278042,No
1493002838.2,40.4520397871608,-79.9457095143437,13.220000267028801,0.0278167724609375,-0.9044952392578121,0.275558471679688,-0.0583605121279964,-0.008133293969101991,-0.0197683784555492,No
1493002838.4,40.4520397871608,-79.9457095143437,13.220000267028801,-0.023223876953125,-0.865325927734375,0.303070068359375,-0.0673097986550987,-0.00700624419578046,0.0121235082303677,No
1493002838.6,40.4520397871608,-79.9457095143437,13.220000267028801,0.0184478759765625,-0.8859710693359379,0.24542236328125,-0.053203300677057995,-0.0283773129953393,-0.0185971202081323,No
1493002838.8,40.4520397871608,-79.9457095143437,13.220000267028801,0.04779052734375,-0.917938232421875,0.25616455078125,-0.034719364815254,-0.000842890485010079,-0.0312735006808005,No
1493002839.0,40.4520397871608,-79.9457095143437,13.220000267028801,-0.025604248046875,-1.01805114746094,0.341827392578125,0.00642780560701525,-0.0702414063830579,0.0364983564234269,No
1493002839.2,40.4521522311945,-79.9457584522248,13.5100002288818,0.011016845703125,-0.926361083984375,0.23030090332031197,-0.048195226247164,-0.041171937820407005,-0.00251961670732397,No
1493002839.4,40.4521522311945,-79.9457584522248,13.5100002288818,-0.037200927734375,-0.884521484375,0.2484130859375,-0.00996075510911437,-0.007377488851737509,0.0233737659392984,No
1493002839.6,40.4521522311945,-79.9457584522248,13.5100002288818,-0.0626983642578125,-0.8832855224609379,0.229766845703125,-0.0492066948291761,-0.0262726167858497,0.00169643361438047,No
1493002839.8,40.4521522311945,-79.9457584522248,13.5100002288818,-0.104812622070312,-0.901214599609375,0.36004638671875,-0.0289898400460575,0.118237161864575,-0.15093811688965802,No
1493002840.0,40.4521522311945,-79.9457584522248,13.5100002288818,0.101791381835938,-0.89764404296875,0.301239013671875,-0.11571115357063501,0.0922114201117756,-0.13150076935760602,No
1493002840.2,40.4522720614669,-79.9458106047441,13.539999961853,0.16716003417968803,-0.99359130859375,0.249267578125,0.0189925996300091,0.0211423032619211,-0.053170810111759004,No
1493002840.4,40.4522720614669,-79.9458106047441,13.539999961853,0.17640686035156197,-1.05729675292969,0.28973388671875,0.0357755745035794,-0.0640439642103345,0.0741003268025827,No
1493002840.6,40.4522720614669,-79.9458106047441,13.539999961853,-0.0192413330078125,-0.9071197509765621,0.250213623046875,-0.0317906865644939,0.00340884619530142,0.0679034172620774,No
1493002840.8,40.4522720614669,-79.9458106047441,13.539999961853,0.0702667236328125,-0.9757232666015621,0.19602966308593803,-0.0194621149301901,-0.00625283592339704,0.0179425152121909,No
1493002841.0,40.4522720614669,-79.9458106047441,13.539999961853,0.012481689453125,-0.924163818359375,0.2618408203125,-0.0187835414844379,-0.0264651633326624,0.0350610483831112,No
1493002841.2,40.4523840559298,-79.94585934696299,13.4399995803833,-0.0103607177734375,-0.8788909912109379,0.31292724609375,-0.0696869362441034,-0.0165621988192028,0.0249183993715444,No
1493002841.4,40.4523840559298,-79.94585934696299,13.4399995803833,0.125656127929688,-0.894500732421875,0.23530578613281197,-0.0612298018864478,0.0312426080121556,-0.0220317990660075,No
1493002841.6,40.4523840559298,-79.94585934696299,13.4399995803833,0.0783538818359375,-0.89691162109375,0.218231201171875,0.0140055641727267,-0.121342674011716,0.0772239484451367,No
1493002841.8,40.4523840559298,-79.94585934696299,13.4399995803833,0.0087432861328125,-0.8841400146484379,0.302032470703125,-0.0105312042146093,-0.104161556555179,0.0897229623892056,No
1493002842.0,40.4523840559298,-79.94585934696299,13.4399995803833,-0.0029144287109375,-0.8721160888671879,0.279220581054688,-0.0258909858016413,-0.110451676733837,0.0416023046525638,No
1493002842.2,40.4524842044042,-79.945902933572,13.539999961853,-0.0645599365234375,-0.8514862060546879,0.306686401367188,-0.0430449390150597,0.0885567641478599,-0.0742380122309398,No
1493002842.4,40.4524842044042,-79.945902933572,13.539999961853,0.0189666748046875,-0.9405364990234379,0.24822998046875,-0.0163845659744945,0.0809486455457215,-0.0035752937634313795,No
1493002842.6,40.4524842044042,-79.945902933572,13.539999961853,0.0629425048828125,-0.9806976318359379,0.202789306640625,-0.0142945171510003,0.127730798518489,-0.0527204695714266,No
1493002842.8,40.4524842044042,-79.945902933572,13.539999961853,0.117050170898438,-0.947174072265625,0.2010498046875,-0.0153912068878949,0.13518498640962098,-0.0463536503533742,No
1493002843.0,40.4524842044042,-79.945902933572,13.539999961853,0.12823486328125,-0.87078857421875,0.23895263671875,0.0330626123011157,0.0189329448215913,0.00668693118107996,No
1493002843.2,40.4526174159445,-79.94596428237921,13.789999961853,0.044219970703125,-0.98626708984375,0.190521240234375,-0.0585770271246199,0.024836374009970002,-0.0635704541685184,No
1493002843.4,40.4526174159445,-79.94596428237921,13.789999961853,-0.005523681640625,-1.00318908691406,0.20252990722656197,0.0141539022454441,-0.0436995440110012,0.0311778931976666,No
1493002843.6,40.4526174159445,-79.94596428237921,13.789999961853,0.034088134765625,-0.9217071533203121,0.270645141601562,-0.0160929498351308,0.0437099303392525,-0.0450585551152686,No
1493002843.8,40.4526174159445,-79.94596428237921,13.789999961853,-0.012603759765625,-0.89111328125,0.238433837890625,0.00204504140107185,-0.0340418566339379,0.0651478444821724,No
1493002844.0,40.4526174159445,-79.94596428237921,13.789999961853,-0.06396484375,-0.9082183837890621,0.246337890625,-0.0153171710095907,0.026687270967575,-0.0332783283494121,No
1493002844.2,40.4527402274663,-79.9460209148214,14.109999656677198,0.07501220703125,-0.9289398193359379,0.212371826171875,-0.0623770916840539,0.039761527707101,-0.0114033894716103,No
1493002844.4,40.4527402274663,-79.9460209148214,14.109999656677198,-0.00225830078125,-0.9228668212890621,0.212127685546875,0.00969390636788843,-0.0723911100149699,0.0301400593208628,No
1493002844.6,40.4527402274663,-79.9460209148214,14.109999656677198,-0.0334625244140625,-0.958984375,0.17994689941406197,0.0163659238468639,-0.0639273177545891,0.0141933170295773,No
1493002844.8,40.4527402274663,-79.9460209148214,14.109999656677198,0.007354736328125,-0.9754486083984379,0.258453369140625,-0.0519566749707919,-0.0581618403106765,0.0294721385194709,No
1493002845.0,40.4527402274663,-79.9460209148214,14.109999656677198,-0.0327911376953125,-0.89031982421875,0.22218322753906197,-0.000134489635049002,0.007449127885060641,0.0138401818690328,No
1493002845.2,40.452859470971106,-79.9460759019332,14.0500001907349,0.029022216796875,-0.8802490234375,0.190185546875,-0.0282430896763993,0.022517825964947003,-0.024870196155813998,No
1493002845.4,40.452859470971106,-79.9460759019332,14.0500001907349,0.0846099853515625,-0.9345550537109379,0.143218994140625,-0.0685039600878902,0.0993593444775483,-0.0755927622774631,No
1493002845.6,40.452859470971106,-79.9460759019332,14.0500001907349,0.114517211914062,-0.9610595703125,0.15892028808593803,-0.0267280173322532,-0.0742792912278361,0.0446990283681079,No
1493002845.8,40.452859470971106,-79.9460759019332,14.0500001907349,-0.0065155029296875,-0.949615478515625,0.21720886230468803,0.0149709600678804,-0.0649782011207343,0.0376384556860899,No
1493002846.0,40.452859470971106,-79.9460759019332,14.0500001907349,-0.0463714599609375,-0.936004638671875,0.15113830566406197,-0.00350631789119832,-0.0701726968269339,0.0619856070038123,No
1493002846.2,40.4529737751446,-79.9461286113566,13.729999542236301,0.15599060058593803,-1.01593017578125,0.18257141113281197,-0.0684893127018948,0.0642532886720148,-0.0957600822643062,No
1493002846.4,40.4529737751446,-79.9461286113566,13.729999542236301,0.14680480957031197,-1.020751953125,0.17799377441406197,-0.0236081241152254,0.10119293088806801,-0.0868661894878776,No
1493002846.6,40.4529737751446,-79.9461286113566,13.729999542236301,0.0301666259765625,-0.9593658447265621,0.18800354003906197,0.000490820588901604,-0.0276555963399279,0.0267317457577794,No
1493002846.8,40.4529737751446,-79.9461286113566,13.729999542236301,0.0314788818359375,-0.951080322265625,0.174102783203125,-0.0140625558200544,-0.0254374494680009,0.00205409614877812,No
1493002847.0,40.4529737751446,-79.9461286113566,13.729999542236301,0.0241851806640625,-0.927947998046875,0.173248291015625,-0.0696150308946713,-0.00698919996480395,0.0248944309217337,No
1493002847.2,40.453087830007,-79.94618120581441,13.289999961853,0.0727691650390625,-0.9327850341796879,0.1163330078125,-0.0305608387730953,-0.0487278584651798,0.0275344225103292,No
1493002847.4,40.453087830007,-79.94618120581441,13.289999961853,-0.0029754638671875,-0.946197509765625,0.10882568359375,-0.0396467454641186,-0.0391002648084344,-0.00350365473010825,No
1493002847.6,40.453087830007,-79.94618120581441,13.289999961853,-0.0201416015625,-1.03932189941406,0.105133056640625,0.0278015375676642,-0.0448622801429298,-0.0326522191771345,No
1493002847.8,40.453087830007,-79.94618120581441,13.289999961853,0.0735626220703125,-0.928985595703125,0.078338623046875,-0.0593307017131123,0.025913888987016003,-0.00813782134295513,No
1493002848.0,40.453087830007,-79.94618120581441,13.289999961853,0.0894775390625,-1.00088500976562,0.0959625244140625,-0.0204144613360024,0.0490578241242406,-0.0376531030720853,No
1493002848.2,40.4531955568441,-79.946230882211,12.380000114440902,-0.0064544677734375,-0.9503936767578121,0.110305786132812,-0.0329174700217064,0.0023406522820706398,-0.00567413101852282,No
1493002848.4,40.4531955568441,-79.946230882211,12.380000114440902,0.0313262939453125,-0.976470947265625,0.10595703125,-0.0298423179109919,-0.0753237830073651,0.0382725543416377,No
1493002848.6,40.4531955568441,-79.946230882211,12.380000114440902,-0.0649566650390625,-1.00679016113281,0.0046539306640625,-0.0161760404611413,-0.011594338121769,0.00839401743982075,No
1493002848.8,40.4531955568441,-79.946230882211,12.380000114440902,0.052276611328125,-1.03541564941406,-0.040191650390625,-0.0226757514175887,0.037372139577082,-0.0344474560679569,No
1493002849.0,40.4531955568441,-79.946230882211,12.380000114440902,-0.02099609375,-1.00038146972656,0.047210693359375,-0.00231721646447795,-0.0308332801526104,-0.00314279640240251,No
1493002849.2,40.4532985969486,-79.9462783974008,11.210000038147,0.0121917724609375,-1.00605773925781,0.032501220703125,-0.00248632719369798,-0.00849015755517261,0.0213207350549564,No
1493002849.4,40.4532985969486,-79.9462783974008,11.210000038147,0.0044097900390625,-0.9854278564453121,-0.0071868896484375,-0.0423860729613741,-0.0539686931743468,0.0327579466724107,No
1493002849.6,40.4532985969486,-79.9462783974008,11.210000038147,-0.0924224853515625,-0.9725189208984379,0.0418548583984375,-0.0483438306359904,0.0300937203178954,-0.0304266154541553,No
1493002849.8,40.4532985969486,-79.9462783974008,11.210000038147,-0.0232391357421875,-0.987548828125,-0.009490966796875,-0.0696698920131269,0.0780918726443935,-0.0798146715535658,No
1493002850.0,40.4532985969486,-79.9462783974008,11.210000038147,0.0585784912109375,-1.00736999511719,-0.0062713623046875,-0.000291616139363677,-0.0446747936021882,-0.00308633738729283,No
1493002850.2,40.4533834686728,-79.9463175345513,9.3100004196167,-0.03302001953125,-1.04620361328125,0.026214599609375,0.00525787894014344,-0.0978916764008056,0.0290942359607887,No
1493002850.4,40.4533834686728,-79.9463175345513,9.3100004196167,0.0183258056640625,-0.9662933349609379,-0.0223388671875,-0.0324412968188002,-0.0604204672311727,0.00302242152113093,No
1493002850.6,40.4533834686728,-79.9463175345513,9.3100004196167,0.0636749267578125,-1.00498962402344,0.0080108642578125,-0.0222736140929867,0.0480029460164603,-0.0579274821347495,No
1493002850.8,40.4533834686728,-79.9463175345513,9.3100004196167,0.0680694580078125,-1.01234436035156,-0.0173187255859375,-0.0113338809671592,0.0192179030582298,-0.0172250596145235,No
1493002851.0,40.4533834686728,-79.9463175345513,9.3100004196167,0.148468017578125,-1.00254821777344,-0.0263214111328125,0.0109541141957139,0.0967196192050617,-0.0470508659267569,No
1493002851.2,40.4534499308145,-79.9463481824363,7.25,0.0572509765625,-0.95977783203125,-0.0704345703125,-0.0391740343706296,0.0608894498991357,0.01650121243024,No
1493002851.4,40.4534499308145,-79.9463481824363,7.25,0.04180908203125,-1.04689025878906,-0.090545654296875,-0.0596742494937325,0.038685876942818005,0.0238121222547255,No
1493002851.6,40.4534499308145,-79.9463481824363,7.25,0.0456695556640625,-0.9873809814453121,-0.109710693359375,-0.0414600918503536,0.0842975706164961,-0.0368933032130857,No
1493002851.8,40.4534499308145,-79.9463481824363,7.25,0.0702056884765625,-1.03913879394531,-0.14697265625,-0.0340895272174503,0.0810591667309598,-0.0325446274690953,No
1493002852.0,40.4534499308145,-79.9463481824363,7.25,0.0363006591796875,-1.01669311523438,-0.104446411132812,-0.0136058236931058,0.0256172128415812,-0.0034040525053392803,No
1493002852.2,40.4534831995905,-79.94636352376591,4.0300002098083505,0.0264434814453125,-1.06468200683594,-0.112319946289062,0.00444002216938011,0.0435852944002368,0.0105951200807712,No
1493002852.4,40.4534831995905,-79.94636352376591,4.0300002098083505,0.0117950439453125,-1.03788757324219,-0.095306396484375,-0.0241426205460043,0.038450187186346005,-0.0046112634274722,No
1493002852.6,40.4534831995905,-79.94636352376591,4.0300002098083505,0.0090789794921875,-1.03083801269531,-0.04864501953125,-0.0282164580654985,0.0416659542026167,-0.0163896259805656,No
1493002852.8,40.4534831995905,-79.94636352376591,4.0300002098083505,0.033935546875,-1.02598571777344,-0.064971923828125,-0.0322436902659164,0.04913612106028901,-0.0292447045623781,No
1493002853.0,40.4534831995905,-79.94636352376591,4.0300002098083505,0.0479583740234375,-1.00306701660156,0.0582122802734375,-0.0189055142623635,0.017140903724077,-0.00983372232511759,No
1493002853.2,40.4535024355037,-79.9463723940797,1.12000000476837,0.0315093994140625,-0.96209716796875,0.14244079589843803,0.00619531164385133,-0.0159952118231249,0.00543577810096073,No
1493002853.4,40.4535024355037,-79.9463723940797,1.12000000476837,0.060760498046875,-0.9581146240234379,0.152740478515625,-0.0318767066677034,-0.000857271554896507,-0.00565522257478326,No
1493002853.6,40.4535024355037,-79.9463723940797,1.12000000476837,0.0293426513671875,-0.9647674560546879,0.16607666015625,-0.009408149182922921,0.00963345261114363,-0.00758468278454567,No
1493002853.8,40.4535024355037,-79.9463723940797,1.12000000476837,0.0550079345703125,-0.9402923583984379,0.273635864257812,-0.00312761638418906,0.00108337393144423,-0.004299673579932929,No
1493002854.0,40.4535024355037,-79.9463723940797,1.12000000476837,0.073944091796875,-0.9277496337890621,0.286575317382812,-0.0105341336918084,0.00538624330468526,-0.00545282233193724,No
1493002854.2,40.4535081952683,-79.94637505009709,0.40999999642372104,0.0717926025390625,-0.9270172119140621,0.372528076171875,-0.00814767503898842,0.0181334638623495,-0.0171896395720255,No
1493002854.4,40.4535081952683,-79.94637505009709,0.40999999642372104,0.118408203125,-0.8992767333984379,0.414627075195312,0.00895860759091755,0.0254680758205368,-0.0180996417165055,No
1493002854.6,40.4535081952683,-79.94637505009709,0.40999999642372104,0.127212524414062,-0.884918212890625,0.421005249023438,-0.0112965967118981,0.055386826454814,-0.000258592941846694,No
1493002854.8,40.4535081952683,-79.94637505009709,0.40999999642372104,0.0424346923828125,-0.91192626953125,0.445358276367188,-0.0060901167807932,0.055354335889515,0.008324508935369679,No
1493002855.0,40.4535081952683,-79.94637505009709,0.40999999642372104,0.0586395263671875,-0.8778533935546879,0.456634521484375,-0.0349497282495459,0.0289480284169433,0.0016998957237975801,No
1493002855.2,40.4535168828961,-79.9463790562487,1.9700000286102302,0.093597412109375,-0.8715362548828121,0.404922485351562,-0.0143283392968443,0.0458303391991736,-0.0173243955231835,No
1493002855.4,40.4535168828961,-79.9463790562487,1.9700000286102302,0.178558349609375,-0.8579559326171879,0.418106079101562,-0.0293525625865263,0.0959161435041848,-0.0591898204914471,No
1493002855.6,40.4535168828961,-79.9463790562487,1.9700000286102302,0.2532958984375,-0.9845428466796879,0.394393920898438,0.12707512825811199,0.0948998812322106,-0.051188352996304,No
1493002855.8,40.4535168828961,-79.9463790562487,1.9700000286102302,0.28692626953125,-0.849853515625,0.36541748046875,0.0540259511377835,0.22833410554121397,-0.0874656670492544,No
1493002856.0,40.4535168828961,-79.9463790562487,1.9700000286102302,0.095489501953125,-0.8223419189453121,0.398956298828125,0.053709301284173,0.158153152914901,0.0523862428546217,No
1493002856.2,40.4535472501303,-79.9463930595817,3.77999997138977,0.15605163574218803,-1.05519104003906,0.372116088867188,0.16238757904812698,0.275503748452588,-0.0427631765717294,No
1493002856.4,40.4535472501303,-79.9463930595817,3.77999997138977,0.3690185546875,-0.9337310791015621,0.1904296875,-0.160440808291279,0.353111458410805,-0.144360375313271,No
1493002856.6,40.4535472501303,-79.9463930595817,3.77999997138977,0.31817626953125,-0.832275390625,0.17381286621093803,0.00780572515502225,0.53601922629021,-0.27638658635394897,No
1493002856.8,40.4535472501303,-79.9463930595817,3.77999997138977,0.403732299804688,-0.8765716552734379,0.131515502929688,0.000509729032641166,0.564787757649682,-0.272270670889232,No
1493002857.0,40.4535472501303,-79.9463930595817,3.77999997138977,0.612197875976562,-1.00230407714844,0.265533447265625,-0.270578498332596,0.780334695216881,-0.42167374172656796,No
1493002857.2,40.4535711048296,-79.9464040597701,5.1399998664856,0.54949951171875,-0.88140869140625,0.20851135253906197,-0.15163373456638699,0.582796851889125,-0.272808629429428,No
1493002857.4,40.4535711048296,-79.9464040597701,5.1399998664856,0.385910034179688,-0.8995361328125,0.264572143554688,-0.112039986007961,0.5517113703812839,-0.148642205713901,No
1493002857.6,40.4535711048296,-79.9464040597701,5.1399998664856,0.567581176757812,-0.8670196533203121,0.133270263671875,0.0202248442663888,0.647630443362668,-0.266951539244017,No
1493002857.8,40.4535711048296,-79.9464040597701,5.1399998664856,0.482025146484375,-0.7536163330078121,0.24638366699218803,-0.11447970788258198,0.5240717530078971,-0.14113235775598598,No
1493002858.0,40.4535711048296,-79.9464040597701,5.1399998664856,0.420440673828125,-0.96429443359375,0.286773681640625,-0.02561215283551,0.537330034178747,-0.0912108704902328,No
1493002858.2,40.453557245314705,-79.94644932835291,5.71000003814697,0.12548828125,-0.8983917236328121,0.324981689453125,-0.045371476543352995,0.311974674316787,0.0616369992171209,No
1493002858.4,40.453557245314705,-79.94644932835291,5.71000003814697,0.126815795898438,-0.8414459228515621,0.476287841796875,-0.0240571330750128,0.317130021554963,-0.0916929026475372,No
1493002858.6,40.453557245314705,-79.94644932835291,5.71000003814697,0.38873291015625,-0.99554443359375,0.373123168945312,-0.0128356375058549,0.23090645283812103,-0.0252502292433683,No
1493002858.8,40.453557245314705,-79.94644932835291,5.71000003814697,0.267715454101562,-0.9517669677734379,0.431488037109375,0.0749610604668964,0.238840276041576,-0.0552920179200071,No
1493002859.0,40.453557245314705,-79.94644932835291,5.71000003814697,0.001708984375,-0.9984283447265621,0.290435791015625,0.0134489635049002,0.473213898302872,-0.333742287802659,No
1493002859.2,40.453533459548396,-79.9465205755873,6.92000007629395,0.130096435546875,-0.9738006591796879,0.47808837890625,-0.11875328248383198,0.4538881372204939,-0.178312483418473,No
1493002859.4,40.453533459548396,-79.9465205755873,6.92000007629395,0.32666015625,-0.65936279296875,0.337020874023438,0.0154141100732696,-0.0957994970484394,0.22111134634881002,No
1493002859.6,40.453533459548396,-79.9465205755873,6.92000007629395,0.117996215820312,-0.5162353515625,0.442947387695312,-0.128491397325816,-0.11829042508637701,0.0640287841921211,No
1493002859.8,40.453533459548396,-79.9465205755873,6.92000007629395,-0.29132080078125,-0.688323974609375,0.527328491210938,-0.10560658776265598,-0.38219610699167,0.347490856930193,No
1493002860.0,40.453533459548396,-79.9465205755873,6.92000007629395,-0.568130493164062,-1.20564270019531,0.454559326171875,0.38563984059725104,-0.18118097422859802,0.20166547670126897,No
1493002860.2,40.45350027244,-79.9466199833453,9.31999969482422,-0.301910400390625,-0.967987060546875,0.419097900390625,-0.104911502718145,-0.16206187444681,0.0291980992433017,No
1493002860.4,40.45350027244,-79.9466199833453,9.31999969482422,0.314071655273438,-1.12432861328125,0.2454833984375,0.16466378283181698,0.242471762504008,-0.303877066706292,No
1493002860.6,40.45350027244,-79.9466199833453,9.31999969482422,0.131484985351562,-0.8374481201171879,0.373886108398438,0.0359587999865769,-0.150203617061014,0.09138397596108802,No
1493002860.8,40.45350027244,-79.9466199833453,9.31999969482422,0.00128173828125,-1.08026123046875,0.404815673828125,0.005756156380097271,-0.16489601047887198,0.111370733626024,No
1493002861.0,40.45350027244,-79.9466199833453,9.31999969482422,0.042510986328125,-0.7399139404296879,0.4390869140625,0.00026232136737280496,-0.0138343229146346,-0.0266169635147969,No
1493002861.2,40.453463438780105,-79.946730313884,10.970000267028801,0.0769500732421875,-0.8079376220703121,0.293014526367188,-0.11786165615087402,-0.0439173905881697,-0.0490730041424541,No
1493002861.4,40.453463438780105,-79.946730313884,10.970000267028801,0.18891906738281197,-1.04750061035156,0.280242919921875,0.0613829336491274,0.00279658546069221,0.029409021601636,No
1493002861.6,40.453463438780105,-79.946730313884,10.970000267028801,0.0863800048828125,-0.9388427734375,0.383026123046875,0.0227362051743335,0.0051667988308627295,-0.0243034754758451,No
1493002861.8,40.453463438780105,-79.946730313884,10.970000267028801,-0.0487823486328125,-0.7910003662109379,0.253860473632812,-0.13356392025409,-0.0608020982153811,0.154456685321871,No
1493002862.0,40.453463438780105,-79.946730313884,10.970000267028801,-0.0814208984375,-0.81072998046875,0.18037414550781197,-0.0759032868605664,-0.101603856644267,0.121033481009158,No
1493002862.2,40.453422651966,-79.94685791290941,12.1800003051758,0.0261688232421875,-0.91192626953125,0.405197143554688,-0.160408051409871,0.14355237223854098,-0.183269158839329,No
1493002862.4,40.453422651966,-79.94685791290941,12.1800003051758,-0.23377990722656197,-0.9361572265625,0.342941284179688,0.228085898927618,-0.17592629108176197,0.0454377892544959,No
1493002862.6,40.453422651966,-79.94685791290941,12.1800003051758,0.568618774414062,-1.05058288574219,-0.029052734375,-0.21672778319453898,0.396028299377432,-0.132252846049444,No
1493002862.8,40.453422651966,-79.94685791290941,12.1800003051758,0.0181121826171875,-1.0068359375,0.219268798828125,0.102646750527142,-0.0719106757543196,0.16330104330202402,No
1493002863.0,40.453422651966,-79.94685791290941,12.1800003051758,-0.10772705078125,-0.99688720703125,0.304031372070312,0.140100116517471,-0.17002712295112804,0.0967662245241381,No
1493002863.2,40.4533780374106,-79.9469982296661,12.779999732971199,0.05377197265625,-0.8903961181640621,0.381210327148438,-0.0268782196177337,0.0969598363353869,-0.0836901035718491,No
1493002863.4,40.4533780374106,-79.9469982296661,12.779999732971199,-0.03759765625,-0.844329833984375,0.304168701171875,0.101653924072761,0.170581859406191,-0.0974911369728577,No
1493002863.6,40.4533780374106,-79.9469982296661,12.779999732971199,-0.0099639892578125,-0.84063720703125,0.286712646484375,-0.0371484340455153,0.00024021713032514703,-0.00891067069129612,No
1493002863.8,40.4533780374106,-79.9469982296661,12.779999732971199,0.17527770996093803,-0.95037841796875,0.394027709960938,-0.150585514361331,0.10840477112000199,-0.0647281302943759,No
1493002864.0,40.4533780374106,-79.9469982296661,12.779999732971199,0.243988037109375,-0.9288330078125,0.20362854003906197,-0.19227463806543202,0.10760156173523501,-0.131258155382299,No
1493002864.2,40.4533317087755,-79.947143937356,13.470000267028801,-0.022918701171875,-1.0062255859375,0.241119384765625,0.0249857773471234,-0.09269505016573401,0.068732725625528,No
1493002864.4,40.4533317087755,-79.947143937356,13.470000267028801,0.0589599609375,-0.9181976318359379,0.2044677734375,0.142545164714273,-0.15728096765789998,0.08076515374661501,No
1493002864.6,40.4533317087755,-79.947143937356,13.470000267028801,-0.0381622314453125,-0.8401336669921879,0.197296142578125,-0.0427437354957718,-0.3624178748400871,0.20094589057473,No
1493002864.8,40.4533317087755,-79.947143937356,13.470000267028801,0.0615997314453125,-0.797027587890625,0.246307373046875,-0.134860879704959,-0.23737127638428895,0.152766643294106,No
1493002865.0,40.4533317087755,-79.947143937356,13.470000267028801,-0.163665771484375,-0.89471435546875,0.20689392089843803,-0.131294907005342,-0.0278651871177171,0.0072573802865749295,No
1493002865.2,40.4532827290147,-79.94729798307308,13.9300003051758,-0.0754241943359375,-0.9547882080078121,0.3079833984375,-0.135629734311664,-0.0906010066006047,-0.0214128804286731,No
1493002865.4,40.4532827290147,-79.94729798307308,13.9300003051758,0.078216552734375,-0.9781646728515621,0.25921630859375,0.118902419504877,0.00561367726177803,0.0299906559837093,No
1493002865.6,40.4532827290147,-79.94729798307308,13.9300003051758,0.0366058349609375,-0.8960113525390621,0.240325927734375,-0.048935052397988,0.00989204555299032,0.0016058861373177801,No
1493002865.8,40.4532827290147,-79.94729798307308,13.9300003051758,0.29815673828125,-0.9702911376953121,0.24237060546875,-0.0142939845187823,0.156441272966198,-0.114634970174134,No
1493002866.0,40.4532827290147,-79.94729798307308,13.9300003051758,0.24200439453125,-0.948516845703125,0.272109985351562,0.109423163920849,-0.00920681420451294,0.0917722648480215,No
1493002866.2,40.453249190750206,-79.9474034639066,14.470000267028801,-0.062408447265625,-1.00729370117188,0.31109619140625,0.00628053279873387,-0.27656848025640196,0.24494104546673,Yes
1493002866.4,40.453249190750206,-79.9474034639066,14.470000267028801,-0.120391845703125,-0.76727294921875,0.462417602539062,-0.15760400909812602,0.0584337490579736,-0.201146426604813,Yes
1493002866.6,40.453249190750206,-79.9474034639066,14.470000267028801,0.148651123046875,-0.924560546875,0.044342041015625,-0.23030138263845498,0.101462442790384,-0.15722078021726402,Yes
1493002866.8,40.453249190750206,-79.9474034639066,14.470000267028801,0.24845886230468803,-0.66436767578125,0.12725830078125,0.137352799536946,-0.185959217856418,0.133030489087747,Yes
1493002867.0,40.453249190750206,-79.9474034639066,14.470000267028801,0.5023193359375,-0.8783111572265621,0.43243408203125,-0.213625733156815,-0.0220315327498985,-0.12048007613464,Yes
1493002867.2,40.4531864187019,-79.94761624169159,14.890000343322802,0.120620727539062,-1.09120178222656,0.288330078125,-0.00472817619932668,-0.0052703957972668105,0.10871902412863199,Yes
1493002867.4,40.4531864187019,-79.94761624169159,14.890000343322802,-0.0999298095703125,-0.48590087890625,0.46368408203125,0.115806761053769,-0.047557931798308,-0.00615509791139114,Yes
1493002867.6,40.4531864187019,-79.94761624169159,14.890000343322802,-0.16203308105468803,-0.9861907958984379,0.593505859375,-0.0617334056485818,-0.178281857065937,0.13310479128216,Yes
1493002867.8,40.4531864187019,-79.94761624169159,14.890000343322802,0.0612030029296875,-0.964080810546875,0.259262084960938,0.0176333222096327,0.14453188288747199,-0.11960842350985701,Yes
1493002868.0,40.4531864187019,-79.94761624169159,14.890000343322802,-0.009124755859375,-0.81610107421875,0.316314697265625,0.0323835062231455,-0.0363729215360842,0.026014556476221,Yes
1493002868.2,40.453136891167,-79.9477830285934,15.3999996185303,-0.01068115234375,-1.04078674316406,0.16883850097656197,-0.0400909607339438,0.00451166120270324,-0.0249450309824452,Yes
1493002868.4,40.453136891167,-79.9477830285934,15.3999996185303,0.015960693359375,-1.07014465332031,0.265060424804688,-0.0523044838091562,0.0503284182803174,-0.0411815252003313,Yes
1493002868.6,40.453136891167,-79.9477830285934,15.3999996185303,0.04376220703125,-1.04335021972656,0.1845703125,-0.0211196663926554,0.0618239531256445,-0.0568851208840925,Yes
1493002868.8,40.453136891167,-79.9477830285934,15.3999996185303,0.134246826171875,-0.9274749755859379,0.259933471679688,-0.0524504250368926,0.0673396260593076,-0.0988024774936127,Yes
1493002869.0,40.453136891167,-79.9477830285934,15.3999996185303,-0.00665283203125,-0.85107421875,0.282760620117188,-0.00541553807667613,-0.0765581581726169,-0.0350429388876986,Yes
1493002869.2,40.4530867407165,-79.94795599087159,15.9099998474121,0.0742034912109375,-0.9308013916015621,0.20417785644531197,-0.14018640293679,0.0349494619334369,-0.00898896762734445,No
1493002869.4,40.4530867407165,-79.94795599087159,15.9099998474121,0.131210327148438,-1.05802917480469,0.282516479492188,0.034047981904445,0.0369998296566889,-0.0551900188502571,No
1493002869.6,40.4530867407165,-79.94795599087159,15.9099998474121,0.130279541015625,-0.8865509033203121,0.333206176757812,-0.0798327810489783,-0.0271277578118741,0.06002685202205901,No
1493002869.8,40.4530867407165,-79.94795599087159,15.9099998474121,-0.299896240234375,-0.54144287109375,0.31573486328125,-0.0934085110217662,-0.00469009299573855,0.130200081481211,No
1493002870.0,40.4530867407165,-79.94795599087159,15.9099998474121,0.0085296630859375,-1.02656555175781,0.433868408203125,0.033475934902296,-0.10023392657953,-0.165727982003413,No
1493002870.2,40.453035641052296,-79.9481322690317,16.1800003051758,0.116256713867188,-0.7822113037109379,0.293991088867188,-0.23141511660632602,0.0259644890477275,-0.0397538045399398,No
1493002870.4,40.453035641052296,-79.9481322690317,16.1800003051758,-0.14234924316406197,-1.1165771484375,0.36956787109375,0.17057386992292098,-0.0893708924930971,0.17043884765565398,No
1493002870.6,40.453035641052296,-79.9481322690317,16.1800003051758,0.364456176757812,-0.6813812255859379,0.17829895019531197,0.0487110805503123,-0.123678532603825,0.185272921243505,No
1493002870.8,40.453035641052296,-79.9481322690317,16.1800003051758,0.493087768554688,-1.10615539550781,0.136322021484375,-0.102237955299815,-0.337539955517112,0.35913845827376395,No
1493002871.0,40.453035641052296,-79.9481322690317,16.1800003051758,0.0733795166015625,-0.7635345458984379,0.10491943359375,0.0449815897597654,0.0496911238314615,-0.0689716111753081,No
1493002871.2,40.45298337908321,-79.948313317986,16.3899993896484,0.366867065429688,-0.8574676513671879,0.15435791015625,-0.238568633610388,0.0483475590615165,-0.0494807341053452,No
1493002871.4,40.45298337908321,-79.948313317986,16.3899993896484,0.089141845703125,-1.1000671386718799,0.2335205078125,-0.335162285295889,0.11386478398688302,-0.0367779883378853,No
1493002871.6,40.45298337908321,-79.948313317986,16.3899993896484,0.010284423828125,-0.952362060546875,0.054290771484375,0.0885295999047411,-0.0675604021136752,0.185535775243095,No
1493002871.8,40.45298337908321,-79.948313317986,16.3899993896484,-0.062042236328125,-0.9630889892578121,0.206085205078125,-0.0789012072996686,-0.181384972368098,-0.0142005075645205,No
1493002872.0,40.45298337908321,-79.948313317986,16.3899993896484,-0.0839385986328125,-0.96331787109375,0.087921142578125,-0.0773954560193378,0.162173993528702,-0.0918391101913825,No
1493002872.2,40.452935876820604,-79.9484831740495,15.5100002288818,-0.0331268310546875,-1.0120849609375,0.20887756347656197,0.0218357904097777,0.0381364668099347,-0.0958341181426104,No
1493002872.4,40.452935876820604,-79.9484831740495,15.5100002288818,0.131423950195312,-0.9895782470703121,0.205078125,-0.17937401942897896,0.0947504778950572,-0.14708612068896698,No
1493002872.6,40.452935876820604,-79.9484831740495,15.5100002288818,0.0375823974609375,-0.667282104492188,0.261505126953125,0.113146795756998,-0.0219905200691113,0.123829800153741,No
1493002872.8,40.452935876820604,-79.9484831740495,15.5100002288818,-0.112197875976562,-1.02874755859375,0.200927734375,0.169390094818381,-0.19041149056681198,0.20160768610561497,No
1493002873.0,40.452935876820604,-79.9484831740495,15.5100002288818,0.0753631591796875,-0.9674224853515621,0.229248046875,0.0626423425286258,-0.0929320715027511,0.11816472388292501,No
1493002873.2,40.452890356314704,-79.948645943853,14.880000114440902,-0.0070648193359375,-1.1454772949218799,0.0513458251953125,-0.16858555385306798,0.0510623854767433,-0.18098176977906,No
1493002873.4,40.452890356314704,-79.948645943853,14.880000114440902,0.19378662109375,-1.00418090820312,0.134628295898438,0.0826725097193298,0.14836310643166,-0.12321727310302301,No
1493002873.6,40.452890356314704,-79.948645943853,14.880000114440902,0.121810913085938,-0.9610748291015621,0.111328125,-0.101961252862556,0.0304468554784399,-0.00325491548429484,No
1493002873.8,40.452890356314704,-79.948645943853,14.880000114440902,0.193817138671875,-1.03118896484375,0.03564453125,-0.060666010683677996,0.070580959422043,-0.11915302296345301,No
1493002874.0,40.452890356314704,-79.948645943853,14.880000114440902,0.063720703125,-1.13331604003906,0.24853515625,0.08160378317388099,-0.149435028770417,0.102511461943766,No
1493002874.2,40.4528452276841,-79.94880731240971,14.0900001525879,-0.0750885009765625,-1.14088439941406,0.15504455566406197,0.103384446149094,-0.0400097343206964,0.126974993401125,No
1493002874.4,40.4528452276841,-79.94880731240971,14.0900001525879,0.175689697265625,-1.02139282226562,0.123306274414062,0.10293783403428801,0.106754676508589,-0.0706579247775463,No
1493002874.6,40.4528452276841,-79.94880731240971,14.0900001525879,0.19366455078125,-1.08412170410156,0.0987548828125,0.148273091586816,0.120282203265647,-0.10754616798456099,No
1493002874.8,40.4528452276841,-79.94880731240971,14.0900001525879,0.0411376953125,-1.060546875,0.12860107421875,0.043792754649154005,-0.10345129149245501,0.0892111028276923,No
1493002875.0,40.4528452276841,-79.94880731240971,14.0900001525879,0.0606842041015625,-0.929229736328125,0.22618103027343803,-0.0007542072207104401,-0.132950327938936,0.0600433636208175,No
1493002875.2,40.452805458895995,-79.94894951552659,12.7600002288818,0.0352325439453125,-0.963897705078125,0.133743286132812,0.0801899109511579,-0.00795965586602883,0.0498873988038003,No
1493002875.4,40.452805458895995,-79.94894951552659,12.7600002288818,0.1785888671875,-1.06488037109375,0.0543365478515625,-0.0412124178689762,0.0821654438477787,-0.0560771178093625,No
1493002875.6,40.452805458895995,-79.94894951552659,12.7600002288818,0.0846710205078125,-0.999481201171875,-0.0087738037109375,-0.0326191959796175,0.0108457235393477,-0.022752450456983,No
1493002875.8,40.452805458895995,-79.94894951552659,12.7600002288818,0.131484985351562,-1.01123046875,0.116256713867188,0.148954328193658,0.0809212149864937,-0.101040331757606,No
1493002876.0,40.452805458895995,-79.94894951552659,12.7600002288818,0.16729736328125,-1.08486938476562,0.005950927734375,-0.0197385510513403,0.0362922277550548,-0.0162889584913607,No
1493002876.2,40.452770057620704,-79.9490761015238,11.640000343322802,0.041900634765625,-1.01225280761719,0.0807342529296875,0.0111101754355926,-0.0255967065011876,0.0300337991933686,No
1493002876.4,40.452770057620704,-79.9490761015238,11.640000343322802,0.0496978759765625,-0.9957427978515621,0.15602111816406197,-0.0308306169915203,-0.007246727642214621,-0.0077604514164909,No
1493002876.6,40.452770057620704,-79.9490761015238,11.640000343322802,0.04595947265625,-0.927337646484375,0.15602111816406197,-0.0994363098330516,0.07723353582506098,-0.00654844680439584,No
1493002876.8,40.452770057620704,-79.9490761015238,11.640000343322802,0.21144104003906197,-0.86767578125,0.0711669921875,-0.16189888898809698,0.211650999208521,-0.115222463510605,No
1493002877.0,40.452770057620704,-79.9490761015238,11.640000343322802,0.23609924316406197,-1.03254699707031,0.111053466796875,-0.0383529818065581,0.0342916611441873,0.0197769005710374,No
1493002877.2,40.452731545789,-79.94920277962979,10.4200000762939,0.17181396484375,-1.14164733886719,0.146392822265625,0.0723016278023432,0.129291144601167,-0.076360817935842,No
1493002877.4,40.452731545789,-79.94920277962979,10.4200000762939,0.0109405517578125,-0.8229827880859379,0.09197998046875,-0.0762771946776135,-0.0303589711624673,-0.0454835956252453,No
1493002877.6,40.452731545789,-79.94920277962979,10.4200000762939,-0.041839599609375,-1.03480529785156,0.0689849853515625,-0.0511409487289006,-0.11667388630469801,0.0157707073432312,No
1493002877.8,40.452731545789,-79.94920277962979,10.4200000762939,-0.0834503173828125,-1.01258850097656,0.059661865234375,0.0470572575133731,-0.0173294555292546,-0.023996413002159,No
1493002878.0,40.452731545789,-79.94920277962979,10.4200000762939,-0.0148162841796875,-1.0228271484375,-0.039306640625,0.0100012351576836,0.0999159451453748,-0.0534661546766488,No
1493002878.2,40.4526996713205,-79.9493076076335,9.06999969482422,0.0210418701171875,-1.00247192382812,-0.02032470703125,-0.0229380727849615,-0.007303186657324291,-0.0396659202239672,No
1493002878.4,40.4526996713205,-79.9493076076335,9.06999969482422,0.080841064453125,-1.02243041992188,-0.0977630615234375,0.0444372396329532,-0.0566552900820187,0.0677726560525545,No
1493002878.6,40.4526996713205,-79.9493076076335,9.06999969482422,0.0610198974609375,-1.00474548339844,-0.0153961181640625,0.0728062968289132,-0.15150217440853697,0.121618577500649,No
1493002878.8,40.4526996713205,-79.9493076076335,9.06999969482422,-0.0177764892578125,-1.06181335449219,-0.03143310546875,-0.0320777753300044,-0.0412784642640102,-0.0130164661438713,No
1493002879.0,40.4526996713205,-79.9493076076335,9.06999969482422,-0.003814697265625,-1.07795715332031,-0.044464111328125,-0.0483390369460283,-0.013510216209972,0.0229966623289432,No
1493002879.2,40.452674960544705,-79.9493888758529,6.69000005722046,0.024017333984375,-1.05731201171875,-0.0269622802734375,0.021141504313593996,-0.0224757480197237,-0.000791757792080558,No
1493002879.4,40.452674960544705,-79.9493888758529,6.69000005722046,-0.00732421875,-1.03152465820312,0.0133056640625,0.0421666284875516,-0.0598303107336112,0.0762873146897558,No
1493002879.6,40.452674960544705,-79.9493888758529,6.69000005722046,0.0093231201171875,-1.08210754394531,0.0219573974609375,-0.0543505904746641,0.0152473961890307,0.0111325459887492,No
1493002879.8,40.452674960544705,-79.9493888758529,6.69000005722046,0.075958251953125,-1.03717041015625,0.0063018798828125,-0.0414334602394528,0.0683399093647414,-0.0475139896403217,No
1493002880.0,40.452674960544705,-79.9493888758529,6.69000005722046,0.0819091796875,-0.941741943359375,0.0546875,0.008520517591599509,0.0393055945284795,0.021310082410596,No
1493002880.2,40.4526577098362,-79.94944560957809,4.26000022888184,0.084808349609375,-1.04353332519531,0.05340576171875,-0.0282841023571865,-0.0987311047763986,0.0671366931842435,No
1493002880.4,40.4526577098362,-79.94944560957809,4.26000022888184,0.0680389404296875,-0.9936370849609379,0.062713623046875,-0.0311288910336092,-0.0157517988994917,0.00931786802196924,No
1493002880.6,40.4526577098362,-79.94944560957809,4.26000022888184,0.0029144287109375,-0.983673095703125,0.0334320068359375,-0.0274952740423051,0.01932522845016,-0.0035300200249000296,No
1493002880.8,40.4526577098362,-79.94944560957809,4.26000022888184,0.0461273193359375,-0.99847412109375,0.00994873046875,0.021477062610944002,-0.00120561302547887,-0.0136377816261868,No
1493002881.0,40.4526577098362,-79.94944560957809,4.26000022888184,0.0548858642578125,-1.02865600585938,0.037506103515625,-0.006498912008120371,-0.00102025701360936,0.007399593088785159,No
1493002881.2,40.45264733706,-79.9494797233209,2.52999997138977,0.0380096435546875,-1.01559448242188,0.077850341796875,-0.00852717549432471,0.00856605764623987,0.00522165994931836,No
1493002881.4,40.45264733706,-79.9494797233209,2.52999997138977,0.0443115234375,-0.9818572998046879,0.0898284912109375,-0.00665071219025488,-0.0212299212617847,0.00745019314949667,No
1493002881.6,40.45264733706,-79.9494797233209,2.52999997138977,0.030670166015625,-0.974945068359375,0.13580322265625,0.00434015362850213,-0.0106672917463124,-0.0116563897751678,No
1493002881.8,40.45264733706,-79.9494797233209,2.52999997138977,0.0339813232421875,-0.967803955078125,0.13813781738281197,-0.0188575773627421,0.000119043300726542,-0.0225838723599809,No
1493002882.0,40.45264733706,-79.9494797233209,2.52999997138977,0.0608673095703125,-0.96929931640625,0.14811706542968803,-0.00106739496490376,-0.0042482745708944,-0.00213239308482645,No
1493002882.2,40.4526417063329,-79.9494982415243,1.28999996185303,0.0386810302734375,-0.968841552734375,0.14009094238281197,-0.0077034597691632,-0.0137765323189799,0.0106188222144729,No
1493002882.4,40.4526417063329,-79.9494982415243,1.28999996185303,0.0363311767578125,-0.9810028076171879,0.133956909179688,-0.0129418976333491,-0.00629677808138335,0.00841345851577833,No
1493002882.6,40.4526417063329,-79.9494982415243,1.28999996185303,0.027587890625,-0.9722137451171879,0.1412353515625,-0.015090003368607,-0.0126654615121988,0.00627547279266272,No
1493002882.8,40.4526417063329,-79.9494982415243,1.28999996185303,0.048675537109375,-0.9679718017578121,0.189453125,-0.00423762192653408,-0.00103650229625884,-0.00217313944950466,No
1493002883.0,40.4526417063329,-79.9494982415243,1.28999996185303,0.0342864990234375,-0.949554443359375,0.220855712890625,-0.00542885388212653,-0.00421871348279452,0.00528637476380729,No
1493002883.2,40.4526401566857,-79.9495033379675,0.46999999880790705,0.0298919677734375,-0.949127197265625,0.23860168457031197,-0.0224565732598752,-0.0147461892718777,-0.0012580772989534302,No
1493002883.4,40.4526401566857,-79.9495033379675,0.46999999880790705,0.05792236328125,-0.9522705078125,0.2183837890625,-0.0033206955632198,-0.0148702925786754,0.00107059075821185,No
1493002883.6,40.4526401566857,-79.9495033379675,0.46999999880790705,0.0252685546875,-0.9487152099609379,0.218994140625,-0.00983958127951576,-0.0126987510258248,0.0116603845168029,No
1493002883.8,40.4526401566857,-79.9495033379675,0.46999999880790705,0.0611114501953125,-0.959442138671875,0.20121765136718803,-0.0127102026185122,0.00114569190095209,-0.00439794422415685,No
1493002884.0,40.4526401566857,-79.9495033379675,0.46999999880790705,0.03656005859375,-0.94573974609375,0.21650695800781197,-0.0065002435886654,-0.0031478564084736604,0.0063388560266066,No
1493002884.2,40.452638027704396,-79.9495103397113,0.479999989271164,0.0391387939453125,-0.959320068359375,0.243438720703125,-0.0011326424116107,-0.00318327645097171,0.00319526067587707,No
1493002884.4,40.452638027704396,-79.9495103397113,0.479999989271164,0.0390472412109375,-0.962890625,0.2413330078125,-0.019055982863953,-0.0009411611292340029,-0.00872238520222752,No
1493002884.6,40.452638027704396,-79.9495103397113,0.479999989271164,0.0380096435546875,-0.934783935546875,0.20249938964843803,-0.034079407205308,-0.0125440213664912,-0.00671382910808976,No
1493002884.8,40.452638027704396,-79.9495103397113,0.479999989271164,0.0369110107421875,-0.9416961669921879,0.18791198730468803,-0.0276643847715251,-0.00513936827163491,-0.004534830704186929,No
1493002885.0,40.452638027704396,-79.9495103397113,0.479999989271164,0.0322418212890625,-0.9611968994140621,0.18864440917968803,-0.0192384093986234,-0.0115759623102474,-0.0012333099008157,No
1493002885.2,40.4526364288025,-79.9495155981423,0.46000000834465005,0.040863037109375,-0.9673309326171879,0.18438720703125,-0.0127581395181336,-0.0052363073353138,-0.0043819652576163794,No
1493002885.4,40.4526364288025,-79.9495155981423,0.46000000834465005,0.04254150390625,-0.9659271240234379,0.18487548828125,-0.0127927606123046,-0.00204424245274482,-0.00012570120345174,No
1493002885.6,40.4526364288025,-79.9495155981423,0.46000000834465005,0.036865234375,-0.9611358642578121,0.17082214355468803,-0.0223953205548033,-0.0104920557465852,-0.00340085671203119,No
1493002885.8,40.4526364288025,-79.9495155981423,0.46000000834465005,0.0393524169921875,-0.96783447265625,0.17881774902343803,-0.0160109244735564,-0.00521446941437515,-0.000150468601589477,No
1493002886.0,40.4526364288025,-79.9495155981423,0.46000000834465005,0.0473480224609375,-0.9771728515625,0.199371337890625,-0.0116827550699596,7.56337749582504e-05,-0.00225223533388001,No
1493002886.2,40.4526360429555,-79.94951686710691,0.0,0.041046142578125,-0.9427337646484379,0.240447998046875,-0.0128473554146513,-0.00736230883352405,0.000953677986357375,No
1493002886.4,40.4526360429555,-79.94951686710691,0.0,0.040924072265625,-0.95758056640625,0.22601318359375,-0.0117746341275673,-0.0063055665129806105,0.000961933785736621,No
1493002886.6,40.4526360429555,-79.94951686710691,0.0,0.044708251953125,-0.960968017578125,0.218170166015625,-0.0149315452837473,-0.00522165994931836,-0.00120561302547887,No
1493002886.8,40.4526360429555,-79.94951686710691,0.0,0.0447998046875,-0.9471893310546879,0.23289489746093803,-0.0127861027095794,-0.00310817530823148,-0.00118910142672038,No
1493002887.0,40.4526360429555,-79.94951686710691,0.0,0.0419158935546875,-0.959991455078125,0.21846008300781197,-0.012839365931381002,-0.0062986422941464105,0.000951014825267296,No
1493002887.2,40.4526360400829,-79.9495168765542,0.0,0.0435028076171875,-0.9535064697265621,0.22322082519531197,-0.0139107556379199,-0.00522778521982554,0.00200349608806661,No
1493002887.4,40.4526360400829,-79.9495168765542,0.0,0.0428619384765625,-0.95330810546875,0.22611999511718803,-0.0128020816761199,-0.005235508386986771,-0.00118377510454022,No
1493002887.6,40.4526360400829,-79.9495168765542,0.0,0.04376220703125,-0.963104248046875,0.22315979003906197,-0.0138734713826588,-0.00416465131266591,-0.000131293841740906,No
1493002887.8,40.4526360400829,-79.9495168765542,0.0,0.0432586669921875,-0.9532928466796879,0.23036193847656197,-0.0117519972583017,-0.00524216628971197,-0.000106792759712177,No
1493002888.0,40.4526360400829,-79.9495168765542,0.0,0.0451507568359375,-0.9512939453125,0.22038269042968803,-0.0149448610891977,-0.00309379423834505,0.000921187421058408,No
1493002888.2,40.452636037215,-79.949516885986,0.0,0.04241943359375,-0.9540863037109379,0.219757080078125,-0.0139027661546497,-0.0041641186804479,0.00200083292697653,No
1493002888.4,40.452636037215,-79.949516885986,0.0,0.0454254150390625,-0.95501708984375,0.22929382324218803,-0.0117440077750314,-0.00417849975033432,-0.000109455920802257,No
1493002888.6,40.452636037215,-79.949516885986,0.0,0.04461669921875,-0.959381103515625,0.224761962890625,-0.0138734713826588,-0.00416465131266591,-0.000131293841740906,No
1493002888.8,40.452636037215,-79.949516885986,0.0,0.0434417724609375,-0.9581756591796879,0.224822998046875,-0.0138894503491993,-0.00629198439142121,-0.000125967519560748,No
1493002889.0,40.452636037215,-79.949516885986,0.0,0.045135498046875,-0.950286865234375,0.22352600097656197,-0.0138961082519245,-0.00522805153593455,0.000937432703707892,No
1493002889.2,40.4526359255125,-79.94951725335049,0.0,0.0437164306640625,-0.9560546875,0.221527099609375,-0.0127874342901245,-0.00523577470309578,-0.0022498384888989397,No
1493002889.4,40.4526359255125,-79.94951725335049,0.0,0.0412750244140625,-0.9565277099609379,0.226837158203125,-0.0107099023237537,-0.00631249073181482,0.0009728527462059461,No
1493002889.6,40.4526359255125,-79.94951725335049,0.0,0.0446624755859375,-0.952911376953125,0.22564697265625,-0.0117519972583017,-0.00524216628971197,-0.000106792759712177,No
1493002889.8,40.4526359255125,-79.94951725335049,0.0,0.0459136962890625,-0.9512786865234379,0.218292236328125,-0.0128074079983001,-0.0020439761366358197,0.0009403621809069789,No
1493002890.0,40.4526359255125,-79.94951725335049,0.0,0.0419921875,-0.952392578125,0.222747802734375,-0.0149461926697427,-0.00522139363320935,-0.000139549641120152,No
1493002890.2,40.452636446740605,-79.949515539148,0.0,0.044342041015625,-0.9598236083984379,0.23005676269531197,-0.0128100711593901,-0.00629917492636442,-0.00118111194345014,No
1493002890.4,40.452636446740605,-79.949515539148,0.0,0.0433349609375,-0.958740234375,0.22279357910156197,-0.0128167290621153,-0.00523524207087777,-0.000117711720181502,No
1493002890.6,40.452636446740605,-79.949515539148,0.0,0.0422821044921875,-0.94915771484375,0.2196044921875,-0.0138588239966633,-0.00416491762877492,-0.0011973572260996301,No
1493002890.8,40.452636446740605,-79.949515539148,0.0,0.0460052490234375,-0.952880859375,0.22370910644531197,-0.0128167290621153,-0.00523524207087777,-0.000117711720181502,No
1493002891.0,40.452636446740605,-79.949515539148,0.0,0.041534423828125,-0.9578094482421879,0.227447509765625,-0.0138668134799336,-0.0052285841681525705,-0.00119469406500955,No
1493002891.2,40.4526362442974,-79.94951620493829,0.0,0.044097900390625,-0.9556121826171879,0.226318359375,-0.013881460865928999,-0.00522831785204356,-0.000128630680650827,No
1493002891.4,40.4526362442974,-79.94951620493829,0.0,0.0398406982421875,-0.957916259765625,0.22029113769531197,-0.0149608400557381,-0.00522112731710035,0.000926513743238567,No
1493002891.6,40.4526362442974,-79.94951620493829,0.0,0.044403076171875,-0.9535980224609379,0.222259521484375,-0.0138961082519245,-0.00522805153593455,0.000937432703707892,No
1493002891.8,40.4526362442974,-79.94951620493829,0.0,0.0417022705078125,-0.9531707763671879,0.22265625,-0.0138881187686542,-0.0041643849965569,0.0009347695426178131,No
1493002892.0,40.4526362442974,-79.94951620493829,0.0,0.0445556640625,-0.9557342529296879,0.22468566894531197,-0.0149382031864725,-0.004157727093831711,-0.000142212802210231,No
1493002892.2,40.4526362414486,-79.9495162143075,0.0,0.044158935546875,-0.955291748046875,0.22373962402343803,-0.0128167290621153,-0.00523524207087777,-0.000117711720181502,No
1493002892.4,40.4526362414486,-79.9495162143075,0.0,0.044219970703125,-0.9568023681640621,0.22314453125,-0.0138734713826588,-0.00416465131266591,-0.000131293841740906,No
1493002892.6,40.4526362414486,-79.9495162143075,0.0,0.044036865234375,-0.9542083740234379,0.22377014160156197,-0.0117666446442971,-0.00524189997360296,0.000959270624646542,No
1493002892.8,40.4526362414486,-79.9495162143075,0.0,0.0423583984375,-0.9550323486328121,0.22227478027343803,-0.0139040977351947,-0.0062917180753122,0.0009400958647979711,No
1493002893.0,40.4526362414486,-79.9495162143075,0.0,0.0439300537109375,-0.955780029296875,0.224761962890625,-0.0117666446442971,-0.00524189997360296,0.000959270624646542,No
1493002893.2,40.4526362386035,-79.9495162236644,0.0,0.0423736572265625,-0.951690673828125,0.22108459472656197,-0.0138588239966633,-0.00416491762877492,-0.0011973572260996301,No
1493002893.4,40.4526362386035,-79.9495162236644,0.0,0.044342041015625,-0.95379638671875,0.22474670410156197,-0.013881460865928999,-0.00522831785204356,-0.000128630680650827,No
1493002893.6,40.4526362386035,-79.9495162236644,0.0,0.0449066162109375,-0.95892333984375,0.22453308105468803,-0.0117519972583017,-0.00524216628971197,-0.000106792759712177,No
1493002893.8,40.4526362386035,-79.9495162236644,0.0,0.04296875,-0.9547576904296879,0.22509765625,-0.0138974398324695,-0.007355650930798859,-0.000123304358470669,No
1493002894.0,40.4526362386035,-79.9495162236644,0.0,0.0431060791015625,-0.9558563232421879,0.22483825683593803,-0.0128167290621153,-0.00523524207087777,-0.000117711720181502,No
1493002894.2,40.452636235747704,-79.9495162330564,0.0,0.0432891845703125,-0.9563751220703121,0.222198486328125,-0.0138881187686542,-0.0041643849965569,0.0009347695426178131,No
1493002894.4,40.452636235747704,-79.9495162330564,0.0,0.0439605712890625,-0.9547271728515621,0.22666931152343803,-0.0149608400557381,-0.00522112731710035,0.000926513743238567,No
1493002894.6,40.452636235747704,-79.9495162330564,0.0,0.046722412109375,-0.9535980224609379,0.222015380859375,-0.0128233869648405,-0.00417130921539111,0.0009456885030871369,No
1493002894.8,40.452636235747704,-79.9495162330564,0.0,0.042144775390625,-0.95391845703125,0.22203063964843803,-0.0138881187686542,-0.0041643849965569,0.0009347695426178131,No
1493002895.0,40.452636235747704,-79.9495162330564,0.0,0.044281005859375,-0.95623779296875,0.227264404296875,-0.0159962770875609,-0.00521473573048416,-0.0012165319859482,No
1493002895.2,40.4526362328904,-79.9495162424534,0.0,0.044158935546875,-0.9559326171875,0.224090576171875,-0.0139187451211901,-0.00629145175920319,0.00200615924915669,No
1493002895.4,40.4526362328904,-79.9495162424534,0.0,0.0466156005859375,-0.9535980224609379,0.224334716796875,-0.0128087395788451,-0.00417157553150012,-0.000120374881271582,No
1493002895.6,40.4526362328904,-79.9495162424534,0.0,0.0436553955078125,-0.954132080078125,0.2236328125,-0.0138894503491993,-0.00629198439142121,-0.000125967519560748,No
1493002895.8,40.4526362328904,-79.9495162424534,0.0,0.0469512939453125,-0.958038330078125,0.244873046875,-0.0160162507957365,-0.00202293716402419,0.00197366868385772,No
1493002896.0,40.4526362328904,-79.9495162424534,0.0,0.0489349365234375,-0.933197021484375,0.274810791015625,-0.004482632746821371,-0.0180530363974291,0.00639797820280636,No
1493002896.2,40.452636288388604,-79.9495160599323,0.0,0.03741455078125,-0.93280029296875,0.312332153320312,-0.0066120963544487295,-0.0180391879597607,0.00637614028186771,No
1493002896.4,40.452636288388604,-79.9495160599323,0.0,0.071807861328125,-0.9242095947265621,0.34521484375,-0.0105114968225428,0.0064496435279539,-0.00652154887738604,No
1493002896.6,40.452636288388604,-79.9495160599323,0.0,0.06036376953125,-0.9023590087890621,0.408859252929688,0.0041777008020073,-0.0010900318341694301,0.00537665592476097,No
1493002896.8,40.452636288388604,-79.9495160599323,0.0,0.058074951171875,-0.9120330810546879,0.424667358398438,-0.00892611702561858,0.0309009244442984,-0.0310913404622391,No
1493002897.0,40.452636288388604,-79.9495160599323,0.0,0.096099853515625,-0.8968353271484379,0.416168212890625,-0.0265384002626396,-0.0242960186247929,-0.0194008622251182,No
1493002897.2,40.4526302789016,-79.949535823792,1.19000005722046,0.069793701171875,-0.9333648681640621,0.41864013671875,-0.00895993917146259,-0.0275956752154011,0.017038904654327,No
1493002897.4,40.4526302789016,-79.949535823792,1.19000005722046,0.0531463623046875,-0.92529296875,0.38812255859375,0.0025936525856281698,-0.0351156431854578,0.0246400990376311,No
1493002897.6,40.4526302789016,-79.949535823792,1.19000005722046,0.0542449951171875,-0.905975341796875,0.395919799804688,-0.0454865251024444,0.0183771431020918,-0.0122414862666582,No
1493002897.8,40.4526302789016,-79.949535823792,1.19000005722046,0.0491485595703125,-0.9404144287109379,0.348892211914062,0.00976101802735842,-0.0192141746327037,-0.0233071869120465,No
1493002898.0,40.4526302789016,-79.949535823792,1.19000005722046,0.116912841796875,-0.866424560546875,0.375167846679688,-0.010554107399984003,-0.0148258177884711,-0.0149967927304542,No
1493002898.2,40.4526227857774,-79.94956046700291,2.8699998855590803,0.057891845703125,-0.941741943359375,0.395645141601562,0.005642439401550879,0.0339891260443543,-0.0821284259086266,No
1493002898.4,40.4526227857774,-79.94956046700291,2.8699998855590803,0.20930480957031197,-0.9406890869140621,0.412216186523438,-0.0228350084507754,0.0331073534074291,-0.102675778983024,No
1493002898.6,40.4526227857774,-79.94956046700291,2.8699998855590803,0.07379150390625,-0.91558837890625,0.473220825195312,-0.0047457530625212,0.0457680212296658,-0.0172261248789595,No
1493002898.8,40.4526227857774,-79.94956046700291,2.8699998855590803,0.16108703613281197,-1.00636291503906,0.374710083007812,-0.0618247520739715,0.205681257309,-0.11631489218975599,No
1493002899.0,40.4526227857774,-79.94956046700291,2.8699998855590803,0.408706665039062,-0.966796875,0.29443359375,-0.0842230021059739,0.328140861081895,-0.20215736255460698,No
1493002899.2,40.452610711918794,-79.9496001752258,4.46999979019165,0.44622802734375,-0.9265899658203121,0.24151611328125,-0.0604154072251016,0.44925610113651904,-0.163842463951637,No
1493002899.4,40.452610711918794,-79.9496001752258,4.46999979019165,0.29205322265625,-0.8800811767578121,0.268768310546875,-0.0573527719715104,0.37054051616482897,-0.0420595694117304,No
1493002899.6,40.452610711918794,-79.9496001752258,4.46999979019165,0.259613037109375,-0.84600830078125,0.361602783203125,-0.0427690355261275,0.449146645215717,-0.13060887670853802,No
1493002899.8,40.452610711918794,-79.9496001752258,4.46999979019165,0.317626953125,-0.9357757568359379,0.252655029296875,-0.10875977049331,0.544254785645171,-0.0814178945297935,No
1493002900.0,40.452610711918794,-79.9496001752258,4.46999979019165,0.358154296875,-0.810516357421875,0.363525390625,-0.0407887089395446,0.5033899102984509,-0.0902124513975621,No
1493002900.2,40.452595078259705,-79.94965159083681,5.46999979019165,0.359451293945312,-0.9369964599609379,0.287017822265625,-0.000260723470718757,0.275494693704882,-0.0636202552809029,No
1493002900.4,40.452595078259705,-79.94965159083681,5.46999979019165,0.32421875,-0.99371337890625,0.26556396484375,-0.0625046571002687,0.34078528362148297,-0.0708233070812402,No
1493002900.6,40.452595078259705,-79.94965159083681,5.46999979019165,0.232666015625,-0.9127349853515621,0.286239624023438,-0.0201603957680088,0.300087921107328,-0.0745496020784791,No
1493002900.8,40.452595078259705,-79.94965159083681,5.46999979019165,0.28741455078125,-0.9878082275390621,0.2896728515625,-0.0637624680831132,0.278030822010964,-0.0909323038402105,No
1493002901.0,40.452595078259705,-79.94965159083681,5.46999979019165,0.331024169921875,-0.9830780029296879,0.203155517578125,-0.0864480731967351,0.283501221206096,-0.0645233332065488,No
1493002901.2,40.45258051915071,-79.9496994724928,6.01999998092651,0.2825927734375,-1.05490112304688,0.315231323242188,0.0512328277865084,0.19326666557148603,0.0192176367421208,No
1493002901.4,40.45258051915071,-79.9496994724928,6.01999998092651,0.70458984375,-1.27565002441406,0.108871459960938,-0.132105040608945,0.36890160682999396,-0.0278936829413809,No
1493002901.6,40.45258051915071,-79.9496994724928,6.01999998092651,0.362716674804688,-0.91326904296875,0.16600036621093803,0.13487925551648,0.24166349311316895,0.0807233421175008,No
1493002901.8,40.45258051915071,-79.9496994724928,6.01999998092651,0.15913391113281197,-1.02276611328125,0.284881591796875,-0.0372895815832895,0.452300626894698,-0.14015684184869,No
1493002902.0,40.45258051915071,-79.9496994724928,6.01999998092651,0.337600708007812,-0.9016876220703121,0.274703979492188,-0.0576033754300869,0.4003069339847539,-0.162621138275727,No
1493002902.2,40.4524994162114,-79.949699069867,6.5,0.33465576171875,-0.9057769775390621,0.235198974609375,-0.0725663460146971,0.513156520964098,-0.17479391498626098,No
1493002902.4,40.4524994162114,-79.949699069867,6.5,0.25341796875,-0.95184326171875,0.292251586914062,-0.107765878774492,0.18365425193295398,-0.039960998472748005,No
1493002902.6,40.4524994162114,-79.949699069867,6.5,-0.033050537109375,-0.7953338623046879,0.236175537109375,-0.0904508043151242,0.13676796936156402,0.14692473312690899,No
1493002902.8,40.4524994162114,-79.949699069867,6.5,-0.201019287109375,-1.00782775878906,0.349945068359375,0.0969081710102394,-0.35479271200697204,0.349493554069933,No
1493002903.0,40.4524994162114,-79.949699069867,6.5,-0.151397705078125,-0.8034210205078121,0.325424194335938,-0.00722755288236604,0.0723711363067943,-0.0546376792401747,No
1493002903.2,40.4524351781099,-79.9496704854252,7.2600002288818395,-0.131439208984375,-0.772003173828125,0.463394165039062,-0.0183454514851198,0.0416108267680521,0.0402209229951397,No
1493002903.4,40.4524351781099,-79.9496704854252,7.2600002288818395,0.003326416015625,-0.9481048583984379,0.329925537109375,0.0399103984120365,0.00398968162904771,-0.034786742790833,No
1493002903.6,40.4524351781099,-79.9496704854252,7.2600002288818395,0.0087738037109375,-0.9871368408203121,0.303131103515625,-0.0318846961509737,0.0214829215653422,0.0070816116546297,No
1493002903.8,40.4524351781099,-79.9496704854252,7.2600002288818395,0.035247802734375,-0.8966217041015621,0.326065063476562,-0.0755653317182353,-0.0207851733597414,-0.0145808069681838,No
1493002904.0,40.4524351781099,-79.9496704854252,7.2600002288818395,-0.046844482421875,-0.9678497314453121,0.4215087890625,0.0160724434947372,-0.0575266763906926,0.11653034192194302,No
1493002904.2,40.452367503938,-79.94964037201291,8.57999992370605,0.0947418212890625,-0.9550628662109379,0.311172485351562,0.0122287030934258,-0.017106548946014998,-0.0467440697691798,No
1493002904.4,40.452367503938,-79.94964037201291,8.57999992370605,0.106643676757812,-0.8091278076171879,0.292831420898438,-0.0458987824391886,0.0779456651005482,-0.0273264296291941,No
1493002904.6,40.452367503938,-79.94964037201291,8.57999992370605,0.145599365234375,-0.9220733642578121,0.33026123046875,-0.20720937914248702,0.11622194786771199,-0.0472023997927824,No
1493002904.8,40.452367503938,-79.94964037201291,8.57999992370605,-0.0571441650390625,-0.8931121826171879,0.354324340820312,-0.12786262499244802,0.0805936461724139,-0.10600606192616802,No
1493002905.0,40.452367503938,-79.94964037201291,8.57999992370605,-0.0555572509765625,-0.9765167236328121,0.354934692382812,-0.10475064778830498,0.0570555631938576,-0.0182791387739769,No
1493002905.2,40.4522898374271,-79.94960581224521,9.60000038146973,0.1319580078125,-0.927825927734375,0.24969482421875,-0.0312820227962887,0.22992933903417104,-0.23334830524161498,No
1493002905.4,40.4522898374271,-79.94960581224521,9.60000038146973,0.09765625,-0.92242431640625,0.23431396484375,0.121528030023586,-0.0837569489152101,0.0227846747061729,No
1493002905.6,40.4522898374271,-79.94960581224521,9.60000038146973,0.125381469726562,-0.8848876953125,0.266433715820312,0.107885188391328,-0.208111658119806,0.0954684661249425,No
1493002905.8,40.4522898374271,-79.94960581224521,9.60000038146973,-0.0364990234375,-0.9766845703125,0.33355712890625,0.00099415803492658,0.0627592553004803,0.0392981376774273,No
1493002906.0,40.4522898374271,-79.94960581224521,9.60000038146973,-0.045135498046875,-0.92803955078125,0.266708374023438,-0.0349172376842469,0.0619131690221621,-0.0602252575232699,No
1493002906.2,40.452206192665,-79.94956859229659,10.1099996566772,0.0140228271484375,-1.01210021972656,0.32421875,-0.0101391869021497,-0.0467352813375825,0.0149437958247616,No
1493002906.4,40.452206192665,-79.94956859229659,10.1099996566772,0.14274597167968803,-1.08723449707031,0.19184875488281197,0.00113104451495665,-0.106352006551769,0.169814070063922,No
1493002906.6,40.452206192665,-79.94956859229659,10.1099996566772,-0.0587005615234375,-1.07688903808594,0.334320068359375,-0.0686203402275267,0.0142689508045356,-0.0359244452085149,No
1493002906.8,40.452206192665,-79.94956859229659,10.1099996566772,0.0233917236328125,-0.9636077880859379,0.24287414550781197,-0.0415160182332452,0.0183422556918117,-0.0687100887562624,No
1493002907.0,40.452206192665,-79.94956859229659,10.1099996566772,0.106124877929688,-0.95098876953125,0.208831787109375,-0.0173281239487096,-0.00627920121818883,-0.0598691928855263,No
1493002907.2,40.4521197376215,-79.9495301218389,10.3699998855591,-0.0388336181640625,-0.90081787109375,0.24449157714843803,0.0818812845594672,-0.134559143553453,0.0129139344419032,Yes
1493002907.4,40.4521197376215,-79.9495301218389,10.3699998855591,0.0358734130859375,-0.8672943115234379,0.2911376953125,-0.23203057313424397,-0.0123464148136073,-0.170805564937758,Yes
1493002907.6,40.4521197376215,-79.9495301218389,10.3699998855591,0.284515380859375,-1.03314208984375,0.096160888671875,-0.0160423497744193,0.0309432687056307,-0.0556872310257749,Yes
1493002907.8,40.4521197376215,-79.9495301218389,10.3699998855591,0.392059326171875,-1.07566833496094,0.397232055664062,-0.109201855234263,-0.30027940238970396,0.26621038151264803,Yes
1493002908.0,40.4521197376215,-79.9495301218389,10.3699998855591,0.0512542724609375,-0.9325408935546879,0.264358520507812,0.0151714960979634,-0.0649694126891371,0.100547114323724,Yes
1493002908.2,40.4520305430822,-79.94949043237008,10.539999961853,-0.503219604492188,-0.517181396484375,0.571014404296875,-0.17042499921798598,-0.457331604509966,0.14124181367678798,Yes
1493002908.4,40.4520305430822,-79.94949043237008,10.539999961853,0.383819580078125,-1.1919860839843799,0.060455322265625,-0.19627816813214802,0.0927685534118202,0.0745184430937252,Yes
1493002908.6,40.4520305430822,-79.94949043237008,10.539999961853,0.168914794921875,-0.9178009033203121,0.241424560546875,-0.0419871314300803,-0.0763035599724053,0.0690709470839681,Yes
1493002908.8,40.4520305430822,-79.94949043237008,10.539999961853,0.0165863037109375,-1.14515686035156,0.661056518554688,0.0699790850156851,0.125053256358524,-0.0646453059844744,Yes
1493002909.0,40.4520305430822,-79.94949043237008,10.539999961853,0.758758544921875,-0.6962890625,0.32366943359375,-0.3705258687788329,-0.30389357830505104,0.294464390149516,Yes
1493002909.2,40.451936483706604,-79.9494485781638,10.880000114440902,0.21833801269531197,-1.01077270507812,0.190155029296875,-0.034281807448154,0.36505067589373996,-0.174019734057375,Yes
1493002909.4,40.451936483706604,-79.9494485781638,10.880000114440902,-0.101165771484375,-1.17356872558594,0.272293090820312,0.29177060270690097,-0.0337997752908497,0.0606500317171375,Yes
1493002909.6,40.451936483706604,-79.9494485781638,10.880000114440902,-0.100051879882812,-1.1664733886718799,0.611846923828125,-0.0188764858064816,0.0139240714433703,-0.16869101503223496,Yes
1493002909.8,40.451936483706604,-79.9494485781638,10.880000114440902,0.600234985351562,-0.729461669921875,0.262115478515625,-0.28555664893541904,0.37411900572156803,-0.25018454333698703,Yes
1493002910.0,40.451936483706604,-79.9494485781638,10.880000114440902,0.20182800292968803,-0.9250946044921879,0.291351318359375,0.0476655235063472,0.296459097805986,-0.0525215314379977,Yes
1493002910.2,40.451840715712706,-79.9494059636626,11.380000114440902,0.132949829101562,-0.9440155029296879,0.295379638671875,0.0126249814636296,0.0265149644450469,0.0256499697229892,Yes
1493002910.4,40.451840715712706,-79.9494059636626,11.380000114440902,-0.0283660888671875,-0.7780303955078121,0.22038269042968803,-0.12429558702839599,-0.14170839949977,0.133436088521766,Yes
1493002910.6,40.451840715712706,-79.9494059636626,11.380000114440902,0.0946197509765625,-1.02142333984375,0.269027709960938,0.0025824673090498397,-0.10425077245169699,0.0653345320745869,Yes
1493002910.8,40.451840715712706,-79.9494059636626,11.380000114440902,0.04046630859375,-0.8901519775390621,0.265151977539062,0.0327422340219792,0.0146710881291375,-0.0498146945060412,Yes
1493002911.0,40.451840715712706,-79.9494059636626,11.380000114440902,0.115280151367188,-0.8395538330078121,0.31201171875,-0.135348770816661,0.0189665006513263,0.0177571592003213,Yes
1493002911.2,40.451741136513796,-79.9493616532649,11.869999885559098,0.19122314453125,-1.01512145996094,0.20420837402343803,0.03740755961958,-0.0236363536227803,0.0548209047231721,No
1493002911.4,40.451741136513796,-79.9493616532649,11.869999885559098,0.0725555419921875,-1.07875061035156,0.307601928710938,0.0710440831356078,0.0229452633199047,0.034787009106942,No
1493002911.6,40.451741136513796,-79.9493616532649,11.869999885559098,-0.007171630859375,-0.93914794921875,0.232269287109375,-0.132508243197983,0.008301605749995,-0.03976179402321,No
1493002911.8,40.451741136513796,-79.9493616532649,11.869999885559098,-0.174102783203125,-0.8719940185546879,0.261642456054688,0.100787597770158,-0.0612636240322918,0.149393749773521,No
1493002912.0,40.451741136513796,-79.9493616532649,11.869999885559098,0.040069580078125,-0.8848114013671879,0.25897216796875,-0.0609957100266298,-0.0995731963130816,0.122247083517907,No
