timestamp,latitude,longitude,speed,accelerometerX,accelerometerY,accelerometerZ,gyroX,gyroY,gyroZ,pothole
1493002313.5,40.4474627744044,-79.9441896348058,0.370000004768372,0.0372772216796875,-0.9598846435546879,0.20379638671875,-0.00500674284934897,-0.00848163543968436,-0.0277509375069527,No
1493002313.6,40.4474627744044,-79.9441896348058,0.370000004768372,0.0225830078125,-0.9833984375,0.20011901855468803,-0.0197191099753827,-0.007311975088921559,0.0360682559073792,No
1493002313.8,40.4474627744044,-79.9441896348058,0.370000004768372,0.024932861328125,-0.957672119140625,0.210845947265625,-0.0129565450193445,-0.0179984415950825,0.00311243636597561,No
1493002314.0,40.4474627744044,-79.9441896348058,0.370000004768372,0.0318756103515625,-0.95892333984375,0.2078857421875,-0.0169917667030326,0.000109988553020273,-0.00337289352058536,No
1493002314.2,40.4474661107597,-79.9441898162775,0.370000004768372,0.048553466796875,-0.96026611328125,0.20317077636718803,-0.0148929294479411,-0.00203092664729443,-0.00227966589310783,No
1493002314.4,40.4474661107597,-79.9441898162775,0.370000004768372,0.0476531982421875,-0.951690673828125,0.207855224609375,-0.0266236214175221,0.00336463772120611,0.0018511632737140801,No
1493002314.6,40.4474661107597,-79.9441898162775,0.370000004768372,0.0478668212890625,-0.9582672119140621,0.194122314453125,-0.0179965773823195,0.00224344690228275,-0.006587328956310999,No
1493002314.8,40.4474661107597,-79.9441898162775,0.370000004768372,0.0465087890625,-0.95989990234375,0.20365905761718803,-0.0149981243109992,-0.00628426122425998,0.0030613036730460803,No
1493002315.0,40.4474661107597,-79.9441898162775,0.370000004768372,0.038055419921875,-0.9593353271484379,0.210296630859375,-0.0139040977351947,-0.0062917180753122,0.0009400958647979711,No
1493002315.2,40.4474649056419,-79.9441897507285,0.0,0.0420074462890625,-0.9577484130859379,0.20269775390625,-0.0127861027095794,-0.00310817530823148,-0.00118910142672038,No
1493002315.4,40.4474649056419,-79.9441897507285,0.0,0.0402069091796875,-0.9582977294921879,0.203277587890625,-0.009599896781408629,-0.00419261450411174,-0.00115368138422233,No
1493002315.6,40.4474649056419,-79.9441897507285,0.0,0.0451812744140625,-0.9581451416015621,0.20588684082031197,-0.0117586551610269,-0.004178233434225321,0.0009566074635564619,No
1493002315.8,40.4474649056419,-79.9441897507285,0.0,0.0397796630859375,-0.9608917236328121,0.20613098144531197,-0.0149075768339366,-0.00203066033118542,-0.00121360250874911,No
1493002316.0,40.4474649056419,-79.9441897507285,0.0,0.0434112548828125,-0.961151123046875,0.20509338378906197,-0.0138734713826588,-0.00416465131266591,-0.000131293841740906,No
1493002316.2,40.4474649056419,-79.9441897507285,0.0,0.041168212890625,-0.95928955078125,0.20021057128906197,-0.0138721398021137,-0.00203705191780161,0.0009294432204376539,No
1493002316.4,40.4474677199627,-79.94418990380551,0.0,0.043212890625,-0.9611968994140621,0.20225524902343803,-0.0128167290621153,-0.00523524207087777,-0.000117711720181502,No
1493002316.6,40.4474677199627,-79.94418990380551,0.0,0.038665771484375,-0.9618072509765621,0.204345703125,-0.00860973348811717,-0.00632580653726521,0.00312681743586203,No
1493002316.8,40.4474677199627,-79.94418990380551,0.0,0.0424957275390625,-0.9642486572265621,0.20744323730468803,-0.0128513501562864,-0.0020431771883087898,0.00413855233398314,No
1493002317.0,40.4474677199627,-79.94418990380551,0.0,0.0410308837890625,-0.9638214111328121,0.20204162597656197,-0.0149102399950266,-0.00628585912091403,-0.00333507663310623,No
1493002317.2,40.4474656296571,-79.9441897901092,0.0,0.0408782958984375,-0.962432861328125,0.204193115234375,-0.0117080551003154,-0.005242965238039,-0.00330498291278833,No
1493002317.4,40.4474656296571,-79.9441897901092,0.0,0.038055419921875,-0.9566192626953121,0.207794189453125,-0.0106446548770467,-0.007377488851737509,-0.00435480101449757,No
1493002317.6,40.4474656296571,-79.9441897901092,0.0,0.043121337890625,-0.962066650390625,0.20204162597656197,-0.0149674979584633,-0.0041571944616136895,0.00198991396650721,No
1493002317.8,40.4474656296571,-79.9441897901092,0.0,0.0430908203125,-0.956634521484375,0.20709228515625,-0.0159882876042907,-0.00415106919110651,-0.0012191951470382802,No
1493002318.0,40.4474656296571,-79.9441897901092,0.0,0.0377197265625,-0.95733642578125,0.2049560546875,-0.0169930982835776,-0.0020176108418440302,-0.0044336305827639205,No
1493002318.2,40.4474670581279,-79.9441898678069,0.0,0.0404052734375,-0.967315673828125,0.20689392089843803,-0.012839365931381002,-0.0062986422941464105,0.000951014825267296,No
1493002318.4,40.4474670581279,-79.9441898678069,0.0,0.0371551513671875,-0.9610137939453121,0.20671081542968803,-0.0149541821530129,-0.006285060172587,-0.000136886480030073,No
1493002318.6,40.4474670581279,-79.9441898678069,0.0,0.0240020751953125,-0.9619293212890621,0.214202880859375,-0.0138375187079427,-0.0052291168003705795,-0.00332682083372698,No
1493002318.8,40.4474670581279,-79.9441898678069,0.0,0.049041748046875,-0.9566497802734379,0.21583557128906197,-0.0137562922946953,-0.0041667818415379795,-0.00865980091661066,No
1493002319.0,40.4474670581279,-79.9441898678069,0.0,0.054901123046875,-0.9642333984375,0.216705322265625,-0.0148862715452159,-0.00309485950278108,-0.00334306611637647,No
1493002319.2,40.447466553363206,-79.9441898403516,0.0,0.0510711669921875,-0.948333740234375,0.255828857421875,-0.00563524886660767,-0.0180445142819409,0.0127834395484894,No
1493002319.4,40.447466553363206,-79.9441898403516,0.0,0.0429840087890625,-0.953857421875,0.273590087890625,-0.00871625993172034,-0.0127067405090951,0.007407049939837391,No
1493002319.6,40.447466553363206,-79.9441898403516,0.0,0.04547119140625,-0.9495391845703121,0.270660400390625,-0.0138042291943167,0.00115314875200431,-0.00227673641590874,No
1493002319.8,40.447466553363206,-79.9441898403516,0.0,0.047027587890625,-0.9357452392578121,0.267196655273438,-0.0180098931877699,0.00437131261325606,-0.004460528509773721,No
1493002320.0,40.447466553363206,-79.9441898403516,0.0,0.0473785400390625,-0.9410552978515621,0.271331787109375,-0.0170157351528433,-0.00308101106511267,-0.00336490403731512,No
1493002320.2,40.4474594267064,-79.9441894527172,0.349999994039536,0.052703857421875,-0.9495849609375,0.271270751953125,-0.0180338616375806,0.00118031299512312,-0.00445253902650348,No
1493002320.4,40.4474594267064,-79.9441894527172,0.349999994039536,0.0498809814453125,-0.9261474609375,0.310821533203125,-0.0104049703789396,0.0128305774997838,-0.0108017813813614,No
1493002320.6,40.4474594267064,-79.9441894527172,0.349999994039536,0.0615234375,-0.924835205078125,0.314315795898438,-0.0209936988730946,0.0128987544236898,-0.0151752245234895,No
1493002320.8,40.4474594267064,-79.9441894527172,0.349999994039536,0.0576019287109375,-0.9367218017578121,0.307373046875,-0.0254630158144656,0.0044197821450955,-0.00453696123305899,No
1493002321.0,40.4474594267064,-79.9441894527172,0.349999994039536,0.0336456298828125,-0.9326629638671879,0.303482055664062,-0.018854914201652,0.0160761719202633,-0.0140953127014624,No
1493002321.2,40.447467501061,-79.944189891899,1.11000001430511,0.06982421875,-0.936920166015625,0.30072021484375,0.00136833216808271,0.0170085446179001,-0.0128244522292766,No
1493002321.4,40.447467501061,-79.944189891899,1.11000001430511,0.047454833984375,-0.9353179931640621,0.305526733398438,-0.0103783387680388,0.00857484607783713,-0.0150553822744359,No
1493002321.6,40.447467501061,-79.944189891899,1.11000001430511,0.0687713623046875,-0.9155426025390621,0.352645874023438,-0.0137549607141503,-0.00203918244667367,-0.0075990638544321,No
1493002321.8,40.447467501061,-79.944189891899,1.11000001430511,0.0529327392578125,-0.9136810302734379,0.3905029296875,-0.018149709144999002,-0.008391886910948691,-0.00123038042361661,No
1493002322.0,40.447467501061,-79.944189891899,1.11000001430511,0.078521728515625,-0.9124603271484379,0.399444580078125,-0.009630523133944541,-0.0180216110965662,-0.00644937721184489,No
1493002322.2,40.4474829363828,-79.9441907314598,2.03999996185303,0.06500244140625,-0.894561767578125,0.423385620117188,-0.0057843858876521,-0.0339989797403876,0.014955513733558001,No
1493002322.4,40.4474829363828,-79.9441907314598,2.03999996185303,0.018096923828125,-0.920501708984375,0.454605102539062,-0.031222101671762002,-0.035962528412103,0.00510421454524587,No
1493002322.6,40.4474829363828,-79.9441907314598,2.03999996185303,0.0770721435546875,-0.867401123046875,0.463577270507812,0.00889815383417275,-0.0755805117364488,0.0088158621564893,No
1493002322.8,40.4474829363828,-79.9441907314598,2.03999996185303,0.102935791015625,-0.9178619384765621,0.409103393554688,0.0349816861826268,-0.0129914324296245,0.00465653716600355,No
1493002323.0,40.4474829363828,-79.9441907314598,2.03999996185303,0.01776123046875,-0.8536529541015621,0.4324951171875,-0.033878871175225,-0.0476410224243185,0.0370935729270597,No
1493002323.2,40.447518490760395,-79.94419266534008,4.1100001335144,0.0859527587890625,-0.89984130859375,0.425018310546875,-0.000489489008356564,0.018081265904983997,-0.0320380942297622,No
1493002323.4,40.447518490760395,-79.94419266534008,4.1100001335144,0.133544921875,-0.8802337646484379,0.411834716796875,0.00118723721395732,0.008501342831750941,-0.00427463986568619,No
1493002323.6,40.447518490760395,-79.94419266534008,4.1100001335144,0.12261962890625,-0.9044647216796879,0.383468627929688,0.0122819663152274,0.0328916373591326,-0.0234158438845217,No
1493002323.8,40.447518490760395,-79.94419266534008,4.1100001335144,0.0366668701171875,-0.918975830078125,0.411972045898438,0.0282351001931291,-0.046985352163940994,0.0121386882485812,No
1493002324.0,40.447518490760395,-79.94419266534008,4.1100001335144,0.0926513671875,-0.916900634765625,0.412857055664062,-0.0430787611609037,0.0300601644881604,-0.0261077671143738,No
1493002324.2,40.447574766002795,-79.9441957262734,6.42000007629395,0.05523681640625,-0.896942138671875,0.377670288085938,0.0307054484202866,-0.0523244575173318,-0.0155438060183565,No
1493002324.4,40.447574766002795,-79.9441957262734,6.42000007629395,0.0879364013671875,-0.8981170654296879,0.392974853515625,0.0010088054209220199,0.004249339835330429,0.00639664662226132,No
1493002324.6,40.447574766002795,-79.9441957262734,6.42000007629395,0.102920532226562,-0.97015380859375,0.327529907226562,-0.0339308028164816,-0.0604058198451773,0.0339273407070645,No
1493002324.8,40.447574766002795,-79.9441957262734,6.42000007629395,0.0505523681640625,-0.9163665771484379,0.423233032226562,0.0317195801633888,0.0072429992166885,0.0205641309892649,No
1493002325.0,40.447574766002795,-79.9441957262734,6.42000007629395,-0.063385009765625,-0.9047088623046879,0.34710693359375,0.008466721737579909,-0.0277011363945682,0.0662634426628066,No
1493002325.2,40.4476438092337,-79.9441994816855,8.47000026702881,-0.030059814453125,-0.962188720703125,0.407363891601562,0.0167848390863334,-0.0777520532892994,0.0536832023054903,No
1493002325.4,40.4476438092337,-79.9441994816855,8.47000026702881,0.14646911621093803,-0.958282470703125,0.357131958007812,-0.00907205825335492,0.0947198515425212,-0.0632439506188747,No
1493002325.6,40.4476438092337,-79.9441994816855,8.47000026702881,0.24909973144531197,-0.8878173828125,0.271728515625,-0.0273381475379904,0.012939500788368,-0.0184389284393816,No
1493002325.8,40.4476438092337,-79.9441994816855,8.47000026702881,0.075714111328125,-0.942230224609375,0.315505981445312,-0.006258694877795221,0.036196353955812,-0.0673289734149473,No
1493002326.0,40.4476438092337,-79.9441994816855,8.47000026702881,0.101547241210938,-0.9114990234375,0.384475708007812,-0.0361590697005509,0.048093759809632,-0.0548712384677746,No
1493002326.2,40.4477343682176,-79.94420440738641,10.260000228881802,0.046295166015625,-0.9187164306640621,0.383010864257812,-0.0171377079307689,0.00541926650220224,-0.0673609313480282,No
1493002326.4,40.4477343682176,-79.94420440738641,10.260000228881802,0.046630859375,-1.01313781738281,0.317947387695312,0.0372003656867718,-0.0225812091988909,-0.007024353691193,No
1493002326.6,40.4477343682176,-79.94420440738641,10.260000228881802,0.0289459228515625,-0.922637939453125,0.3101806640625,-0.0713122634573788,-0.0463318124324355,0.0495015067618478,No
1493002326.8,40.4477343682176,-79.94420440738641,10.260000228881802,0.105392456054688,-0.9728851318359379,0.227874755859375,-0.0469885479572491,-0.0996786574922488,0.0328287867574068,No
1493002327.0,40.4477343682176,-79.94420440738641,10.260000228881802,0.0182342529296875,-0.9884033203125,0.2547607421875,-0.0221029054671126,-0.0392078565164736,0.0371923762035016,No
1493002327.2,40.4478335246187,-79.9442098007195,11.5,0.0706787109375,-1.00396728515625,0.207305908203125,-0.0381191562628492,-0.0295288638506896,0.0455331304215208,No
1493002327.4,40.4478335246187,-79.9442098007195,11.5,-0.0030059814453125,-1.01841735839844,0.226654052734375,-0.0431027296107145,0.0502730245296438,-0.0133656065627807,No
1493002327.6,40.4478335246187,-79.9442098007195,11.5,0.00811767578125,-0.99273681640625,0.26812744140625,0.0232371457753774,-0.0692842662872834,0.0537274107795856,No
1493002327.8,40.4478335246187,-79.9442098007195,11.5,0.057464599609375,-0.998443603515625,0.123611450195312,-0.00492551643610155,0.0276864890085728,-0.013982660987352,No
1493002328.0,40.4478335246187,-79.9442098007195,11.5,0.117324829101562,-0.9269866943359379,0.24516296386718803,-0.0472671146072714,0.0609371204826481,-0.0145019773999175,No
1493002328.2,40.4479394394827,-79.9442155616603,11.6899995803833,0.0295562744140625,-0.9780731201171879,0.23619079589843803,-0.0399343668618472,-0.030584540906797,0.0220605612057804,No
1493002328.4,40.4479394394827,-79.9442155616603,11.6899995803833,0.071380615234375,-0.985748291015625,0.20379638671875,0.0055992961918916,0.007407049939837391,-0.0159549980906647,No
1493002328.6,40.4479394394827,-79.9442155616603,11.6899995803833,-0.011138916015625,-0.987030029296875,0.201416015625,-0.0299517738317942,0.0629488723700939,-0.0335217412730454,No
1493002328.8,40.4479394394827,-79.9442155616603,11.6899995803833,0.0508575439453125,-0.9810791015625,0.259246826171875,-0.0321337017128961,-0.0136183405502292,0.0061034325862436,No
1493002329.0,40.4479394394827,-79.9442155616603,11.6899995803833,0.097381591796875,-0.9119873046875,0.17106628417968803,-0.0595858325455419,0.0556928236640641,-0.0508658441882954,No
1493002329.2,40.448044573392295,-79.9442212801232,11.6800003051758,0.130661010742188,-0.971649169921875,0.177093505859375,0.0515540050139719,-0.0279871598956427,0.0304540460133831,No
1493002329.4,40.448044573392295,-79.9442212801232,11.6800003051758,-0.1614990234375,-0.918365478515625,0.21311950683593803,0.0857769566020352,-0.209022192896504,0.153886236216376,No
1493002329.6,40.448044573392295,-79.9442212801232,11.6800003051758,-0.080078125,-1.00355529785156,0.25244140625,0.00245863031836115,-0.0914827792375299,0.0812935249068868,No
1493002329.8,40.448044573392295,-79.9442212801232,11.6800003051758,0.04541015625,-1.00108337402344,0.282562255859375,0.00349167050520289,0.0701729631430429,-0.0609195436194536,No
1493002330.0,40.448044573392295,-79.9442212801232,11.6800003051758,0.0973052978515625,-0.9497833251953121,0.1900634765625,-0.0387905391736581,0.0534357946402219,-0.015462046972891002,No
1493002330.2,40.4481471087202,-79.94422685724359,11.4399995803833,0.0574951171875,-0.977081298828125,0.21726989746093803,0.0334242695771485,0.00723687394618132,0.0515018070566064,No
1493002330.4,40.4481471087202,-79.94422685724359,11.4399995803833,0.0798492431640625,-0.9953460693359379,0.20429992675781197,-0.0109637015756382,0.0255940433400975,-0.0406944330369558,No
1493002330.6,40.4481471087202,-79.94422685724359,11.4399995803833,0.034088134765625,-1.03744506835938,0.21455383300781197,0.0384049134478147,0.00187699593628785,-0.0038764972827193397,No
1493002330.8,40.4481471087202,-79.94422685724359,11.4399995803833,0.0362548828125,-0.9957275390625,0.19645690917968803,0.0118750353006633,0.019057048128388997,-0.0788274377374734,No
1493002331.0,40.4481471087202,-79.94422685724359,11.4399995803833,0.104476928710938,-0.996429443359375,0.18267822265625,0.0521039477790733,0.0432782319265507,0.0292095508359891,No
1493002331.2,40.4482439192128,-79.94423212297771,11.2399997711182,0.0283203125,-1.00213623046875,0.18357849121093803,0.0366224597302246,-0.0449107496747692,0.0228813474537428,No
1493002331.4,40.4482439192128,-79.94423212297771,11.2399997711182,0.0809783935546875,-0.9850311279296879,0.17683410644531197,0.0342165600014471,0.0093500922711592,-0.00500487863658591,No
1493002331.6,40.4482439192128,-79.94423212297771,11.2399997711182,0.023162841796875,-0.961822509765625,0.213592529296875,0.00444401691101522,0.0031603732655970302,-0.0116910108693388,No
1493002331.8,40.4482439192128,-79.94423212297771,11.2399997711182,0.0505523681640625,-0.9388275146484379,0.25311279296875,0.0285054110437721,-0.0129482892199653,0.0109874037093399,No
1493002332.0,40.4482439192128,-79.94423212297771,11.2399997711182,0.126998901367188,-0.971221923828125,0.21418762207031197,-0.0479177248615777,0.0439155263754066,-0.0539146310042181,No
1493002332.2,40.4483493683019,-79.9442378585839,11.210000038147,0.08160400390625,-0.9771728515625,0.200103759765625,0.007498928997445121,0.0424907351922142,-0.05760843543615799,No
1493002332.4,40.4483493683019,-79.9442378585839,11.210000038147,0.14854431152343803,-0.995025634765625,0.16650390625,0.0190053828032415,-0.00969603689676049,0.00661689004441088,No
1493002332.6,40.4483493683019,-79.9442378585839,11.210000038147,0.0468902587890625,-0.93621826171875,0.20703125,0.0316620558838431,-0.191651458370353,0.14902250511756399,No
1493002332.8,40.4483493683019,-79.9442378585839,11.210000038147,-0.0479888916015625,-0.9775238037109379,0.23484802246093803,0.0203699865457981,-0.124575218942855,0.0772974516912229,No
1493002333.0,40.4483493683019,-79.9442378585839,11.210000038147,0.09637451171875,-0.9376373291015621,0.17500305175781197,0.00717748545387255,-0.0425959300552724,-0.0030152309861877103,No
1493002333.2,40.4483493683019,-79.9442378585839,11.210000038147,0.20503234863281197,-0.9745025634765621,0.15948486328125,-0.0558853702108768,0.0131352431284888,0.0441749182655804,No
1493002333.4,40.448379318609796,-79.9442394876465,11.0,0.189910888671875,-0.8306732177734379,0.24021911621093803,-0.0854997215325579,0.151596183995017,-0.050312439313777,No
1493002333.6,40.448379318609796,-79.9442394876465,11.0,0.134613037109375,-0.9339447021484379,0.22062683105468803,-0.0603408387145793,0.0429408094164376,-0.00286103395907213,No
1493002333.8,40.448379318609796,-79.9442394876465,11.0,0.10302734375,-1.02775573730469,0.14036560058593803,-0.0585397428693588,0.0961110868959786,-0.0275027308933573,No
1493002334.0,40.448379318609796,-79.9442394876465,11.0,0.13935852050781197,-0.945526123046875,0.24299621582031197,-0.0337851279048542,0.059789830685042004,0.0112281534718831,No
1493002334.2,40.4485410270251,-79.9442600111932,10.8299999237061,0.14924621582031197,-0.9768524169921879,0.210968017578125,-0.0282843686732956,0.0618796131924271,-0.000449275275896368,No
1493002334.4,40.4485410270251,-79.9442600111932,10.8299999237061,0.08966064453125,-0.9239044189453121,0.23020935058593803,0.0194719686262234,0.0849622956245799,-0.0533305997771638,No
1493002334.6,40.4485410270251,-79.9442600111932,10.8299999237061,0.188385009765625,-0.91314697265625,0.206451416015625,0.0273099180304356,0.14979934920754,-0.0459541761898623,No
1493002334.8,40.4485410270251,-79.9442600111932,10.8299999237061,0.129562377929688,-0.990325927734375,0.21568298339843803,-0.033676737248488,0.155518487648485,-0.0220704149018137,No
1493002335.0,40.4485410270251,-79.9442600111932,10.8299999237061,0.127334594726562,-0.904937744140625,0.23054504394531197,-0.0571493064642284,0.0737706274596309,0.0141515054004631,No
1493002335.2,40.44863637096571,-79.94427562523941,10.710000038147,0.281829833984375,-0.9405517578125,0.16569519042968803,-0.0449048907203711,0.17259441024196398,-0.125652201287683,No
1493002335.4,40.44863637096571,-79.94427562523941,10.710000038147,0.287612915039062,-0.891082763671875,0.199432373046875,-0.067083696278551,0.129132686516307,-0.0852509822867445,No
1493002335.6,40.44863637096571,-79.94427562523941,10.710000038147,0.1956787109375,-0.9305572509765621,0.190338134765625,0.0213518940397103,0.0445405702832482,0.0203617307464188,No
1493002335.8,40.44863637096571,-79.94427562523941,10.710000038147,0.0704498291015625,-0.9786224365234379,0.20381164550781197,0.115807560002096,-0.0273330875319193,0.0822884818901404,No
1493002336.0,40.44863637096571,-79.94427562523941,10.710000038147,0.024932861328125,-1.00924682617188,0.228851318359375,0.075790368830347,0.0878012253466044,0.0346682321223245,No
1493002336.2,40.448722734006,-79.94429973478209,10.7600002288818,0.107650756835938,-0.9205169677734379,0.22520446777343803,0.0769555018072567,0.12394964240279499,-0.0304521818006201,No
1493002336.4,40.448722734006,-79.94429973478209,10.7600002288818,0.117721557617188,-0.9232940673828121,0.258132934570312,0.00753461535605218,-0.05427948407355901,0.119633190907994,No
1493002336.6,40.448722734006,-79.94429973478209,10.7600002288818,0.0452728271484375,-0.8806304931640621,0.2431640625,-0.0830354985759076,-0.0802849858020738,0.10917708783612501,No
1493002336.8,40.448722734006,-79.94429973478209,10.7600002288818,-0.107376098632812,-0.972015380859375,0.290863037109375,0.0926790711991935,-0.0814405313990591,0.0310130435261907,No
1493002337.0,40.448722734006,-79.94429973478209,10.7600002288818,-0.07293701171875,-0.980712890625,0.327835083007812,0.0304045112171076,-0.006575078415296629,0.0312484669665537,No
1493002337.2,40.4488163108284,-79.9443383459036,10.970000267028801,0.13720703125,-0.955322265625,0.27294921875,-0.0453006364583569,0.21619302044765099,-0.228125313711752,No
1493002337.4,40.4488163108284,-79.9443383459036,10.970000267028801,0.215667724609375,-0.9343414306640621,0.18634033203125,0.000235956072581021,-0.0882758006528565,0.0897922045775476,No
1493002337.6,40.4488163108284,-79.9443383459036,10.970000267028801,0.0909271240234375,-0.9495086669921879,0.24505615234375,-0.0397111939624985,-0.088022001400972,0.0520650656271581,No
1493002337.8,40.4488163108284,-79.9443383459036,10.970000267028801,-0.00445556640625,-0.9501495361328121,0.20616149902343803,0.0893783493441493,-0.0878006927143864,0.0352605191487581,No
1493002338.0,40.4488163108284,-79.9443383459036,10.970000267028801,-0.0171661376953125,-1.04754638671875,0.2733154296875,-0.0125525434819795,0.0351723685166765,-0.0748542677071842,No
1493002338.2,40.448908608305295,-79.944376429149,11.0900001525879,0.0571746826171875,-0.9263458251953121,0.248779296875,-0.169715000471371,0.17446022090167398,-0.18664285130824104,No
1493002338.4,40.448908608305295,-79.944376429149,11.0900001525879,0.287994384765625,-0.920989990234375,0.19236755371093803,-0.0765677455525412,0.111108412258651,-0.10236099334217699,No
1493002338.6,40.448908608305295,-79.944376429149,11.0900001525879,0.14805603027343803,-0.9136810302734379,0.24090576171875,-0.0288223272134916,-0.0370451033952202,-0.0151264886755411,No
1493002338.8,40.448908608305295,-79.944376429149,11.0900001525879,0.0426177978515625,-0.8830108642578121,0.267288208007812,-0.0688898521298427,-0.0112451977028596,0.0473033335980964,No
1493002339.0,40.448908608305295,-79.944376429149,11.0900001525879,0.01513671875,-0.9480743408203121,0.269195556640625,-0.0488724681123711,0.0045718486433390295,-0.005843241747742861,No
1493002339.2,40.449004135192794,-79.944415844895,11.210000038147,-0.029388427734375,-1.01577758789062,0.21525573730468803,0.0690365923059061,-0.0557527447885908,0.0605586852917478,No
1493002339.4,40.449004135192794,-79.944415844895,11.210000038147,-0.0074462890625,-0.8476104736328121,0.28179931640625,0.0164974840047139,0.0849790735394474,-0.0693543074239525,No
1493002339.6,40.449004135192794,-79.944415844895,11.210000038147,0.05548095703125,-0.889923095703125,0.21543884277343803,-0.0357809008257596,0.0789374262904937,-0.0656091039829741,No
1493002339.8,40.449004135192794,-79.944415844895,11.210000038147,0.0809326171875,-0.92083740234375,0.204437255859375,-0.0482351736635152,-0.0347883406874871,0.0038607846322878704,No
1493002340.0,40.449004135192794,-79.944415844895,11.210000038147,0.087158203125,-0.995330810546875,0.22711181640625,-0.0558281122474401,-0.0123972811904279,0.026115756597643997,No
1493002340.2,40.4491015216806,-79.94445661785521,11.3199996948242,0.0235137939453125,-0.9585418701171879,0.20985412597656197,0.0253572883191895,-0.0373835911697693,0.0717924314019201,No
1493002340.4,40.4491015216806,-79.94445661785521,11.3199996948242,0.0494537353515625,-0.963623046875,0.22654724121093803,-0.049339320251462,0.047120374431208,-0.026215891454631,No
1493002340.6,40.4491015216806,-79.94445661785521,11.3199996948242,0.08258056640625,-0.9108734130859379,0.21784973144531197,0.0103469134671759,0.050986751701785,-0.0277472090814266,No
1493002340.8,40.4491015216806,-79.94445661785521,11.3199996948242,0.0831146240234375,-0.9148101806640621,0.229095458984375,0.006495716214812271,-0.067051205713252,0.0332921767870806,No
1493002341.0,40.4491015216806,-79.94445661785521,11.3199996948242,0.120864868164062,-0.9791717529296879,0.16981506347656197,0.0289823831950053,-0.0788884241264362,0.0953933649822023,No
1493002341.2,40.449195795891,-79.9444961446547,11.1800003051758,0.0626678466796875,-0.93475341796875,0.168853759765625,-0.00127219205273085,-0.10634561496515302,0.112213890427143,No
1493002341.4,40.449195795891,-79.9444961446547,11.1800003051758,-0.0783843994140625,-1.00221252441406,0.262847900390625,0.0193859485230138,-0.12881257455328002,0.1466022243189,No
1493002341.6,40.449195795891,-79.9444961446547,11.1800003051758,-0.0685272216796875,-0.9947052001953121,0.238616943359375,0.0334176116744233,-0.0385069125175647,0.0270968651432292,No
1493002341.8,40.449195795891,-79.9444961446547,11.1800003051758,0.022552490234375,-0.97601318359375,0.23826599121093803,0.0497214838678884,-0.0215958395955616,0.0122931515918058,No
1493002342.0,40.449195795891,-79.9444961446547,11.1800003051758,-0.059906005859375,-0.9361114501953121,0.257232666015625,-0.0307935990523682,-0.183802856321781,0.12597231325071,No
1493002342.2,40.4492893343622,-79.94453536297729,11.0699996948242,-0.14622497558593803,-0.94329833984375,0.31500244140625,-0.0223689552600116,-0.157261260265833,0.147314353594387,No
1493002342.4,40.4492893343622,-79.94453536297729,11.0699996948242,-0.075775146484375,-0.9909820556640621,0.22529602050781197,0.0135973015776176,-0.0904971433180916,0.0462199596666522,No
1493002342.6,40.4492893343622,-79.94453536297729,11.0699996948242,-0.064697265625,-0.8847198486328121,0.26788330078125,-0.0362853035362206,-0.06889837424533099,0.0456535053027924,No
1493002342.8,40.4492893343622,-79.94453536297729,11.0699996948242,-0.06268310546875,-1.00830078125,0.254302978515625,0.0173654082039707,-0.0511673140236924,0.0258989752849116,No
1493002343.0,40.4492893343622,-79.94453536297729,11.0699996948242,-0.0261993408203125,-0.996551513671875,0.257659912109375,0.032869533122084994,-0.00872265151833653,0.0056901099850633,No
1493002343.2,40.449389406191294,-79.9445773205721,11.1000003814697,-0.040374755859375,-0.9603118896484379,0.20368957519531197,0.0299376590780167,0.000867657883147816,-0.00822543934281873,No
1493002343.4,40.449389406191294,-79.9445773205721,11.1000003814697,-0.0482635498046875,-0.9888153076171879,0.209930419921875,0.0360829032933746,0.0497534418009693,-0.041341314865736,No
1493002343.6,40.449389406191294,-79.9445773205721,11.1000003814697,-0.15907287597656197,-0.9135284423828121,0.25299072265625,-0.0333773979419631,-0.0816796832649482,0.0595770441139446,No
1493002343.8,40.449389406191294,-79.9445773205721,11.1000003814697,-0.062103271484375,-0.9474029541015621,0.245758056640625,0.00629091912698518,-0.21595626542674298,0.122170118162404,No
1493002344.0,40.449389406191294,-79.9445773205721,11.1000003814697,-0.114089965820312,-0.9569854736328121,0.21697998046875,-0.0241391584365872,-0.100896787374851,-0.00318540697984378,No
1493002344.2,40.4494808910669,-79.94461567787391,10.8299999237061,0.004150390625,-1.02473449707031,0.271163940429688,-0.008998022375050721,-0.0137778638995249,-0.0501686286149127,No
1493002344.4,40.4494808910669,-79.94461567787391,10.8299999237061,-0.0344696044921875,-0.96124267578125,0.301116943359375,-0.046180544882519006,0.0651726118803101,-0.0912691937181056,No
1493002344.6,40.4494808910669,-79.94461567787391,10.8299999237061,0.02203369140625,-1.0126953125,0.23370361328125,0.05999302987621499,0.0889533088341727,-0.0550584586924072,No
1493002344.8,40.4494808910669,-79.94461567787391,10.8299999237061,0.13592529296875,-1.00091552734375,0.279708862304688,0.0396651212756402,0.0890742163476623,-0.125637021269469,No
1493002345.0,40.4494808910669,-79.94461567787391,10.8299999237061,0.310791015625,-0.9653778076171879,0.271942138671875,-0.0758524204837459,0.0164410249896042,-0.0509310916350024,No
1493002345.2,40.449572753202794,-79.9446541933513,10.5699996948242,0.15028381347656197,-1.02107238769531,0.18748474121093803,-0.013912886166792,0.0660352097573868,-0.0365641365023519,No
1493002345.4,40.449572753202794,-79.9446541933513,10.5699996948242,-0.052337646484375,-0.9661865234375,0.23786926269531197,0.0740459983163451,-0.0898236298784106,0.0649627547864119,No
1493002345.6,40.449572753202794,-79.9446541933513,10.5699996948242,-0.0366058349609375,-0.9272918701171879,0.25030517578125,-0.0599626698397881,0.0269767565780667,-0.0390672416109174,No
1493002345.8,40.449572753202794,-79.9446541933513,10.5699996948242,0.1036376953125,-0.949462890625,0.2041015625,-0.0502309465844205,0.0428689040670055,-0.0411410451517621,No
1493002346.0,40.449572753202794,-79.9446541933513,10.5699996948242,0.0821533203125,-0.9608154296875,0.230865478515625,-0.0243210523390396,-0.071119184278348,-0.0512437467469777,No
1493002346.2,40.4496639130955,-79.9446924143959,10.6099996566772,0.11669921875,-0.9156646728515621,0.297561645507812,0.0266688951560535,-0.012939767104477,-0.0103557018987731,No
1493002346.4,40.4496639130955,-79.9446924143959,10.6099996566772,0.114364624023438,-0.984375,0.26715087890625,0.0209550830372885,-0.0394933473853301,0.00351510632279559,No
1493002346.6,40.4496639130955,-79.9446924143959,10.6099996566772,0.078460693359375,-0.9742889404296879,0.312728881835938,-0.0329486290064603,-0.0167949590984757,0.0636788448248847,No
1493002346.8,40.4496639130955,-79.9446924143959,10.6099996566772,-0.003082275390625,-1.0078125,0.303787231445312,-0.0294223374070864,-0.00832370998704266,-0.0333323905195408,No
1493002347.0,40.4496639130955,-79.9446924143959,10.6099996566772,0.102020263671875,-0.963714599609375,0.245025634765625,-0.0238371559689722,0.098005659695461,-0.0719333126235853,No
1493002347.2,40.449757693341205,-79.94473173408849,10.5299997329712,0.14228820800781197,-0.942779541015625,0.281295776367188,-0.0321464848861285,0.0289219294382605,-0.0473171820357648,No
1493002347.4,40.449757693341205,-79.94473173408849,10.5299997329712,0.114425659179688,-0.961639404296875,0.218414306640625,0.0337273373091995,-0.0629677808138335,0.0687455087987604,No
1493002347.6,40.449757693341205,-79.94473173408849,10.5299997329712,0.112503051757812,-0.92791748046875,0.2310791015625,0.0119871543825557,-0.0564507593103006,0.0269237596723741,No
1493002347.8,40.449757693341205,-79.94473173408849,10.5299997329712,0.104812622070312,-0.9531707763671879,0.327499389648438,-0.0263818063905429,-0.0593922207342931,0.0276047299631073,No
1493002348.0,40.449757693341205,-79.94473173408849,10.5299997329712,0.0769500732421875,-0.9425048828125,0.318557739257812,-0.0284782468006533,0.0608068919053432,-0.0644213341367987,No
1493002348.2,40.4498458846063,-79.94476871046241,10.539999961853,0.0410919189453125,-1.00483703613281,0.261978149414062,0.0325832433049015,0.0136226016079733,0.0386821485172919,No
1493002348.4,40.4498458846063,-79.94476871046241,10.539999961853,0.057586669921875,-0.97259521484375,0.287216186523438,-0.039726640296821,0.008772718946830021,0.0283584045515998,No
1493002348.6,40.4498458846063,-79.94476871046241,10.539999961853,0.13775634765625,-0.89971923828125,0.281646728515625,-0.0471960082061662,0.0970929943898908,-0.0775011835146139,No
1493002348.8,40.4498458846063,-79.94476871046241,10.539999961853,0.103668212890625,-0.9097900390625,0.21409606933593803,-0.0612524387557135,0.0067753481292705895,-0.0336972435888816,No
1493002349.0,40.4498458846063,-79.94476871046241,10.539999961853,0.131210327148438,-0.9475860595703121,0.283279418945312,-0.0303219532233152,0.0214669425988017,-0.0291536244530974,No
1493002349.2,40.4499399478861,-79.944808148824,10.710000038147,0.178131103515625,-0.9199371337890621,0.215057373046875,-0.0102989765675544,-0.0446047524655191,0.0277312301148861,No
1493002349.4,40.4499399478861,-79.944808148824,10.710000038147,0.126724243164062,-0.9535369873046879,0.221466064453125,0.0885913852420309,-0.11650930294933198,0.0769088964881803,No
1493002349.6,40.4499399478861,-79.944808148824,10.710000038147,-0.015167236328125,-0.9007110595703121,0.287979125976562,0.0620647028881876,0.0272518611186718,-0.00689838617163225,No
1493002349.8,40.4499399478861,-79.944808148824,10.710000038147,0.0732421875,-0.981719970703125,0.24098205566406197,0.0034424020250364198,0.085067224171529,-0.0492301306467688,No
1493002350.0,40.4499399478861,-79.944808148824,10.710000038147,-0.0124053955078125,-0.9029998779296879,0.31744384765625,-0.145391817603459,0.127508690883577,-0.122299814107491,No
1493002350.2,40.4500377893743,-79.9448491712931,11.0500001907349,0.138519287109375,-0.9405517578125,0.251220703125,-0.080494310263754,0.052632851571563,-0.0809260086764558,No
1493002350.4,40.4500377893743,-79.9448491712931,11.0500001907349,0.120452880859375,-0.9812774658203121,0.24897766113281197,-0.0286311122472239,-0.0636314405574813,0.0339899249926813,No
1493002350.6,40.4500377893743,-79.9448491712931,11.0500001907349,0.0243072509765625,-0.9193572998046879,0.252975463867188,0.0126279109408287,-0.12984055473404998,0.0953574123074862,No
1493002350.8,40.4500377893743,-79.9448491712931,11.0500001907349,0.0364532470703125,-1.05157470703125,0.190582275390625,-0.0359350978528752,-0.0359265757373869,0.0381085036184889,No
1493002351.0,40.4500377893743,-79.9448491712931,11.0500001907349,-0.0616607666015625,-0.9892578125,0.278762817382812,-0.0398707173117943,0.0917277900578172,-0.0710150546797259,No
1493002351.2,40.4501312854091,-79.94488837182321,10.960000038147,0.076507568359375,-0.979522705078125,0.131729125976562,-0.0202565358833607,0.0043872915797965395,0.00404614064415739,No
1493002351.4,40.4501312854091,-79.94488837182321,10.960000038147,0.040283203125,-0.9631195068359379,0.0837249755859375,-0.00500940601043905,0.0223689552600116,-0.0107711550288255,No
1493002351.6,40.4501312854091,-79.94488837182321,10.960000038147,0.04669189453125,-1.01957702636719,0.0660400390625,-0.0321696543876122,0.0108499845970918,0.0220331306465526,No
1493002351.8,40.4501312854091,-79.94488837182321,10.960000038147,0.111404418945312,-1.03660583496094,-0.031829833984375,-0.0290681369821059,0.0427328165353024,-0.0313280954831471,No
1493002352.0,40.4501312854091,-79.94488837182321,10.960000038147,0.126678466796875,-1.04632568359375,-0.0255126953125,0.00017630126416324598,0.0638130681438247,-0.0556060046125275,No
1493002352.2,40.4502203850658,-79.9449257290628,9.38000011444092,0.05877685546875,-0.9908905029296879,0.0528411865234375,-0.0371079539969461,0.05767288393453799,-0.0581043160311308,No
1493002352.4,40.4502203850658,-79.9449257290628,9.38000011444092,0.0500335693359375,-1.01426696777344,-0.009033203125,-0.00852584391377967,0.0106936570411042,0.00628239701149692,No
1493002352.6,40.4502203850658,-79.9449257290628,9.38000011444092,-0.0227203369140625,-1.01304626464844,0.004302978515625,0.0166548768251375,-0.0352096527719376,0.00879109475835156,No
1493002352.8,40.4502203850658,-79.9449257290628,9.38000011444092,0.108779907226562,-1.00740051269531,0.005279541015625,-0.0322623323935469,0.0427535891918051,-0.0313608523645551,No
1493002353.0,40.4502203850658,-79.9449257290628,9.38000011444092,0.0977325439453125,-1.04277038574219,-0.01556396484375,-0.0655228175636555,0.086576703877386,-0.0669995403881045,No
1493002353.2,40.4502851723378,-79.94495289273242,6.889999866485599,0.0613555908203125,-1.03535461425781,-0.0426483154296875,-0.00851785443050944,0.0117573235804818,0.00627973385040684,No
1493002353.4,40.4502851723378,-79.94495289273242,6.889999866485599,0.112533569335938,-1.04006958007812,-0.01922607421875,-0.0215178089756222,0.0575759448708591,-0.0302228836307642,No
1493002353.6,40.4502851723378,-79.94495289273242,6.889999866485599,0.0343780517578125,-1.04217529296875,-0.024505615234375,0.0047430899014311205,-0.026619360359778,0.0278388218229253,No
1493002353.8,40.4502851723378,-79.94495289273242,6.889999866485599,0.01007080078125,-1.02125549316406,-0.035400390625,-0.0225284786093073,-0.0126172582964684,0.005132976685018721,No
1493002354.0,40.4502851723378,-79.94495289273242,6.889999866485599,0.0953826904296875,-1.03804016113281,-0.092498779296875,-0.0448292569454128,-0.0124729149653861,0.000639424977728025,No
1493002354.2,40.450327070174204,-79.9449704594389,4.42999982833862,0.0344085693359375,-1.04165649414062,-0.0386505126953125,-0.0306601746817552,-0.00405839118517175,-0.0184290747433483,No
1493002354.4,40.450327070174204,-79.9449704594389,4.42999982833862,0.03729248046875,-1.03459167480469,-0.073760986328125,-0.0103557018987731,0.00963824630110577,-0.0161241088198847,No
1493002354.6,40.450327070174204,-79.9449704594389,4.42999982833862,0.03338623046875,-1.04743957519531,-0.0699005126953125,-0.00325411653596782,-0.0138076913037338,-0.0031963259403131,No
1493002354.8,40.450327070174204,-79.9449704594389,4.42999982833862,0.038177490234375,-1.01995849609375,-0.053436279296875,-0.0118518657991796,-0.0126870331170285,0.0031100395209945303,No
1493002355.0,40.450327070174204,-79.9449704594389,4.42999982833862,0.0739288330078125,-1.00968933105469,0.0145721435546875,-0.0168346401987179,0.00542619072103645,-0.0119147164009055,No
1493002355.2,40.4503496438487,-79.9449799240114,1.83000004291534,0.0672607421875,-0.9686279296875,0.19892883300781197,0.00823955409659615,-0.0117522635744107,0.0139754704524088,No
1493002355.4,40.4503496438487,-79.9449799240114,1.83000004291534,0.057891845703125,-0.9332427978515621,0.2720947265625,0.00306103735693708,-0.013847905036193998,0.0021995047442964397,No
1493002355.6,40.4503496438487,-79.9449799240114,1.83000004291534,0.084320068359375,-0.94708251953125,0.27349853515625,-0.013781592325051,0.00221654897527295,-0.00334546296135754,No
1493002355.8,40.4503496438487,-79.9449799240114,1.83000004291534,0.082550048828125,-0.9267425537109379,0.310104370117188,-0.00962785997285446,-0.00206448247702943,0.00203918244667367,No
1493002356.0,40.4503496438487,-79.9449799240114,1.83000004291534,0.087890625,-0.9234619140625,0.351272583007812,-0.0075077174290423794,-0.00526959684893979,0.00100294646652384,No
1493002356.2,40.450354059646,-79.9449817754439,0.6700000166893011,0.092559814453125,-0.9123687744140621,0.395248413085938,-0.00108071077035415,-0.00212040885992109,-5.5926382891664e-06,No
1493002356.4,40.450354059646,-79.9449817754439,0.6700000166893011,0.0850067138671875,-0.909576416015625,0.398818969726562,-0.0136058236931058,0.00221335318196486,-0.0161382235736622,No
1493002356.6,40.450354059646,-79.9449817754439,0.6700000166893011,0.087432861328125,-0.8911285400390621,0.425628662109375,0.0009901632932914608,-0.0138351218629616,-0.00208658671407708,No
1493002356.8,40.450354059646,-79.9449817754439,0.6700000166893011,0.098480224609375,-0.881256103515625,0.442626953125,-0.026953853392692004,-0.00939509969358154,0.0189401353565345,No
1493002357.0,40.450354059646,-79.9449817754439,0.6700000166893011,0.08160400390625,-0.873199462890625,0.480087280273438,-0.007574296456294359,0.0170716615357349,0.0180040342333717,No
1493002357.2,40.4503701421653,-79.94498851843879,2.07999992370605,0.12054443359375,-0.895538330078125,0.39447021484375,0.0026082999716236102,-0.0117120498419505,0.0363082067215953,No
1493002357.4,40.4503701421653,-79.94498851843879,2.07999992370605,0.165924072265625,-0.8605194091796879,0.466461181640625,0.0351742327294396,-0.0491521000268294,0.04846660236224299,No
1493002357.6,40.4503701421653,-79.94498851843879,2.07999992370605,0.022064208984375,-0.9846649169921879,0.442291259765625,-0.0340341334667766,-0.0221191507497621,-0.0152183677331488,No
1493002357.8,40.4503701421653,-79.94498851843879,2.07999992370605,0.114669799804688,-0.79315185546875,0.469589233398438,0.0283528119133106,-0.0182770082451048,-0.0583043194289958,No
1493002358.0,40.4503701421653,-79.94498851843879,2.07999992370605,0.10107421875,-0.897979736328125,0.454269409179688,-0.0231364782861724,0.0384443282319478,-0.000336090929568,No
1493002358.2,40.450405744027705,-79.9450034454021,4.11999988555908,-0.005462646484375,-0.9565277099609379,0.4573974609375,-0.00288393714444681,0.0393761682973666,-0.0011973572260996301,No
1493002358.4,40.450405744027705,-79.9450034454021,4.11999988555908,0.14552307128906197,-0.928924560546875,0.41961669921875,-0.100446713150628,0.0676402969463775,-0.17073099642723596,No
1493002358.6,40.450405744027705,-79.9450034454021,4.11999988555908,0.22434997558593803,-0.9051513671875,0.404205322265625,0.0747765034033539,-0.0738673002072008,0.0979816912456503,No
1493002358.8,40.450405744027705,-79.9450034454021,4.11999988555908,0.0626220703125,-0.8778839111328121,0.387222290039062,0.0407215972800746,-0.0311059878482345,0.042079543119906,No
1493002359.0,40.450405744027705,-79.9450034454021,4.11999988555908,0.116897583007812,-0.9103546142578121,0.430694580078125,-0.0248563477181456,-0.00196168445895237,0.0253397114559949,No
1493002359.2,40.450442487372605,-79.9450188509601,5.869999885559079,0.0450897216796875,-0.8559417724609379,0.417312622070312,-0.0270595808879681,-0.0774646982076798,0.0670943489229113,No
1493002359.4,40.450442487372605,-79.9450188509601,5.869999885559079,0.0572662353515625,-0.830230712890625,0.398391723632812,-0.0610918501419817,0.00146580386397961,0.0292247308542025,No
1493002359.6,40.450442487372605,-79.9450188509601,5.869999885559079,0.056732177734375,-0.9849090576171879,0.383193969726562,-0.0271546557388839,0.151206829843647,-0.111554491741239,No
1493002359.8,40.450442487372605,-79.9450188509601,5.869999885559079,0.266098022460938,-0.8820648193359379,0.363555908203125,-0.0270265576904511,0.0778263554837126,-0.00580862065357183,No
1493002360.0,40.450442487372605,-79.9450188509601,5.869999885559079,0.21923828125,-0.948638916015625,0.436752319335938,0.0400504806853746,-0.0385404683472997,0.0868728473906028,No
1493002360.2,40.4504391002209,-79.9450174308129,7.7399997711181605,0.107955932617188,-1.00111389160156,0.402313232421875,0.15455815175940302,-0.16800072367768698,0.0531942459293517,No
1493002360.4,40.4504391002209,-79.9450174308129,7.7399997711181605,0.19371032714843803,-0.952301025390625,0.388168334960938,0.080998446658106,-0.14092596277150501,0.0736955263168907,No
1493002360.6,40.4504391002209,-79.9450174308129,7.7399997711181605,-0.0058746337890625,-0.9524993896484379,0.404327392578125,0.0193763611430895,-0.0416047014975449,0.0397556687527029,No
1493002360.8,40.4504391002209,-79.9450174308129,7.7399997711181605,0.067779541015625,-0.9530181884765621,0.363662719726562,0.0453272680692576,0.0124638602176798,-0.0368855800459245,No
1493002361.0,40.4504391002209,-79.9450174308129,7.7399997711181605,0.0837249755859375,-0.9475860595703121,0.358184814453125,0.0354711751909834,-0.0193707685048003,0.0430617169299272,No
1493002361.2,40.45058421453629,-79.94507984775579,9.13000011444092,0.03094482421875,-0.9172515869140621,0.399169921875,-0.0222722825124417,0.108640194560365,-0.0250313174017638,No
1493002361.4,40.45058421453629,-79.94507984775579,9.13000011444092,0.004058837890625,-0.9392852783203121,0.319961547851562,-0.0484335791647261,0.0109591742017851,0.0431906139266871,No
1493002361.6,40.45058421453629,-79.94507984775579,9.13000011444092,-0.089019775390625,-0.91339111328125,0.354278564453125,0.0335268012791165,-0.0161688499261981,0.0313051922977724,No
1493002361.8,40.45058421453629,-79.94507984775579,9.13000011444092,-0.069732666015625,-0.913665771484375,0.397079467773438,0.0319701836219652,-0.13954271690131798,0.0774548445116466,No
1493002362.0,40.45058421453629,-79.94507984775579,9.13000011444092,0.11236572265625,-0.8677520751953121,0.372039794921875,-0.0414254707561826,0.0342977864146945,-0.0666179094038961,No
1493002362.2,40.4506683036585,-79.94511604101709,10.1000003814697,0.0043182373046875,-0.9078216552734379,0.3365478515625,-0.0189140363778518,-0.0360370969226252,0.0393492703703568,No
1493002362.4,40.4506683036585,-79.94511604101709,10.1000003814697,0.0648345947265625,-0.8733062744140621,0.320968627929688,0.0233655101399192,-0.000151267549916501,0.00450447066776002,No
1493002362.6,40.4506683036585,-79.94511604101709,10.1000003814697,-0.01409912109375,-0.902313232421875,0.377334594726562,0.063925187225717,-0.0280753105277243,-0.0173986977175967,No
1493002362.8,40.4506683036585,-79.94511604101709,10.1000003814697,-0.0439910888671875,-0.8952789306640621,0.341278076171875,-0.0396147875310377,-0.046547528480732,-0.009881392908630009,No
1493002363.0,40.4506683036585,-79.94511604101709,10.1000003814697,0.075164794921875,-0.9452972412109379,0.347213745117188,-0.0196317582916281,-0.0945336965823247,0.0597509485331268,No
1493002363.2,40.4507588041815,-79.9451549938447,10.8299999237061,-0.0489654541015625,-0.942169189453125,0.373748779296875,-0.00541234228336804,-0.00848669544575551,-0.0757347087635644,No
1493002363.4,40.4507588041815,-79.9451549938447,10.8299999237061,0.0614471435546875,-0.92376708984375,0.310836791992188,-0.0406923025080837,0.0311054552160165,-0.0442116698886234,No
1493002363.6,40.4507588041815,-79.9451549938447,10.8299999237061,0.0303955078125,-0.89453125,0.3057861328125,-0.0441347045331202,-0.0539617689555126,0.005018460758145321,No
1493002363.8,40.4507588041815,-79.9451549938447,10.8299999237061,0.0573577880859375,-0.9257049560546879,0.3404541015625,-0.0171536868973094,0.0266957930830633,-0.0546214339575252,No
1493002364.0,40.4507588041815,-79.9451549938447,10.8299999237061,0.102493286132812,-0.9703521728515621,0.310897827148438,-0.0893969914717799,0.0580143011862861,-0.050110838019257996,No
1493002364.2,40.4508532311597,-79.94519563667941,11.220000267028801,0.0832672119140625,-0.974090576171875,0.295333862304688,0.0784513993915542,-0.0781520600850293,0.0607128823188634,No
1493002364.4,40.4508532311597,-79.94519563667941,11.220000267028801,-0.06121826171875,-0.934600830078125,0.3089599609375,0.0147704240377975,-0.0298812000629071,-0.00616894634905955,No
1493002364.6,40.4508532311597,-79.94519563667941,11.220000267028801,0.0355987548828125,-0.93914794921875,0.259506225585938,-0.0112611766694001,-0.0563016222892562,0.0138907819297443,No
1493002364.8,40.4508532311597,-79.94519563667941,11.220000267028801,0.066986083984375,-0.8938140869140621,0.254287719726562,-0.0333776642580721,0.0204213855548366,-0.0398443520170025,No
1493002365.0,40.4508532311597,-79.94519563667941,11.220000267028801,0.05072021484375,-1.00108337402344,0.23724365234375,0.00318354276708072,-0.0287434976452252,-0.014820225150182,No
1493002365.2,40.4509483837446,-79.9452365918265,11.1700000762939,0.077301025390625,-0.9860076904296879,0.18084716796875,-0.00120188459995276,-0.00850107651564194,0.0053407032500449,No
1493002365.4,40.4509483837446,-79.9452365918265,11.1700000762939,0.0854644775390625,-0.9812469482421879,0.187286376953125,-0.023091204547641003,0.0171672690188688,-0.0152077150887885,No
1493002365.6,40.4509483837446,-79.9452365918265,11.1700000762939,0.12750244140625,-0.9303436279296879,0.20954895019531197,-0.0009235842660394801,-0.00850613652171309,-0.0149145010527708,No
1493002365.8,40.4509483837446,-79.9452365918265,11.1700000762939,0.14404296875,-0.9738922119140621,0.2227783203125,0.047758467828391,-0.013074523055635,0.00478756469163545,No
1493002366.0,40.4509483837446,-79.9452365918265,11.1700000762939,0.079833984375,-0.99652099609375,0.25531005859375,0.0179180141301621,-0.0107525129011949,0.00767469762939035,No
1493002366.2,40.451038395012496,-79.9452753340711,10.4099998474121,0.0189361572265625,-0.9374542236328121,0.192901611328125,-0.0441709235239452,0.0726076250115933,-0.0784732373124929,No
1493002366.4,40.451038395012496,-79.9452753340711,10.4099998474121,0.13819885253906197,-0.9461669921875,0.15606689453125,-0.0398068014456324,0.0768332627132221,-0.0837705310367695,No
1493002366.6,40.451038395012496,-79.9452753340711,10.4099998474121,0.17179870605468803,-0.9689483642578121,0.16184997558593803,-0.029846046336518,0.119316541054384,-0.0880430403735836,No
1493002366.8,40.451038395012496,-79.9452753340711,10.4099998474121,0.036773681640625,-1.02996826171875,0.16297912597656197,0.0250289205567827,0.00409860491763195,0.0407618110125348,No
1493002367.0,40.451038395012496,-79.9452753340711,10.4099998474121,0.036163330078125,-0.9797210693359379,0.0755615234375,-0.0184812727007139,-0.0232792237206006,0.0147978545970253,No
1493002367.2,40.451124984276206,-79.945312603432,9.60000038146973,0.087615966796875,-0.909759521484375,0.118545532226562,-0.0432358876652184,0.0247439623201442,-0.0175659442340536,No
1493002367.4,40.451124984276206,-79.945312603432,9.60000038146973,0.122482299804688,-0.9933624267578121,0.102508544921875,-0.0248936319734067,-0.0147267481959202,0.021107415851641005,No
1493002367.6,40.451124984276206,-79.945312603432,9.60000038146973,0.058837890625,-1.00349426269531,0.119979858398438,0.00877431684348407,-0.0277067290328574,0.0438761115912735,No
1493002367.8,40.451124984276206,-79.945312603432,9.60000038146973,0.0760040283203125,-1.00717163085938,0.0633544921875,0.00866752408377189,0.0680134058150976,-0.0512650520356983,No
1493002368.0,40.451124984276206,-79.945312603432,9.60000038146973,0.0777130126953125,-1.03652954101562,0.0735626220703125,-0.0232283573437801,0.0203611981142008,-0.00348900734411281,No
1493002368.2,40.451199874246,-79.9453448372355,7.96000003814697,0.0366363525390625,-1.00204467773438,0.0446319580078125,-0.0284241846305247,0.025712554008606003,-0.00995329825806215,No
1493002368.4,40.451199874246,-79.9453448372355,7.96000003814697,0.0225677490234375,-0.9930419921875,0.081573486328125,0.020704745894821,-0.0182125597467249,0.0333116178630381,No
1493002368.6,40.451199874246,-79.9453448372355,7.96000003814697,0.0261383056640625,-1.020751953125,0.0390777587890625,0.0125104655367562,-0.00433349572577694,0.0171986943197317,No
1493002368.8,40.451199874246,-79.9453448372355,7.96000003814697,0.10943603515625,-0.9916534423828121,0.0066375732421875,-0.0291040896568219,0.0437972820230071,-0.028132568491161,No
1493002369.0,40.451199874246,-79.9453448372355,7.96000003814697,0.0814971923828125,-1.00218200683594,0.0147247314453125,-0.0191811514351867,0.0214011625198768,0.0125429561020552,No
1493002369.2,40.4512551493889,-79.9453686285137,5.619999885559079,0.0706787109375,-0.9950103759765621,0.059326171875,-0.0123871611782856,-0.02544304210629,0.0351238989848371,No
1493002369.4,40.4512551493889,-79.9453686285137,5.619999885559079,0.031097412109375,-1.00149536132812,0.0340576171875,-0.00332202714376484,0.0181078975158848,0.0191111102985176,No
1493002369.6,40.4512551493889,-79.9453686285137,5.619999885559079,0.045074462890625,-1.01913452148438,0.0031585693359375,-0.00206288458037538,0.0127783795424182,0.00207833091469784,No
1493002369.8,40.4512551493889,-79.9453686285137,5.619999885559079,0.0604095458984375,-0.99591064453125,0.02490234375,-0.00141094274552398,-0.00317821644490056,0.0234504649786927,No
1493002370.0,40.4512551493889,-79.9453686285137,5.619999885559079,-0.003692626953125,-1.01426696777344,0.059295654296875,-0.0044999432939068894,0.00109589078856761,0.0180767385311308,No
1493002370.2,40.451290054833606,-79.9453836523579,3.35999989509583,0.0064544677734375,-1.00947570800781,0.0405120849609375,-0.0215417774254329,0.0192791557633016,-0.0493161507499783,No
1493002370.4,40.451290054833606,-79.9453836523579,3.35999989509583,0.088043212890625,-1.00270080566406,0.132858276367188,-0.018553976998473002,0.0054325823076526395,-0.0417863290838883,No
1493002370.6,40.451290054833606,-79.9453836523579,3.35999989509583,0.080810546875,-0.94146728515625,0.23115539550781197,-0.007474427915416391,0.0011126687034351099,0.00205303088434208,No
1493002370.8,40.451290054833606,-79.9453836523579,3.35999989509583,0.01910400390625,-0.9142303466796879,0.299118041992188,-0.00695777466394102,0.0191880756540209,-0.025709890847516004,No
1493002371.0,40.451290054833606,-79.9453836523579,3.35999989509583,0.097808837890625,-0.8956146240234379,0.359130859375,0.0103743440264037,-0.00325571443262187,0.0182402566220617,No
1493002371.2,40.4513102832837,-79.94539235899641,1.89999997615814,0.0590667724609375,-0.877838134765625,0.408859252929688,-0.0397159876524607,-0.00931227538368007,0.0177430444465439,No
1493002371.4,40.4513102832837,-79.94539235899641,1.89999997615814,0.058868408203125,-0.9466705322265621,0.432296752929688,-0.0322423586853713,0.0161579309657288,-0.0472852241026839,No
1493002371.6,40.4513102832837,-79.94539235899641,1.89999997615814,0.049102783203125,-0.832611083984375,0.479034423828125,-0.0622905389486264,0.00252654092615817,-0.0379617634424255,No
1493002371.8,40.4513102832837,-79.94539235899641,1.89999997615814,0.125885009765625,-0.9252777099609379,0.396682739257812,-0.0288915694018336,-0.0189590438002741,-0.00024687503305034504,No
1493002372.0,40.4513102832837,-79.94539235899641,1.89999997615814,0.101791381835938,-0.83740234375,0.468978881835938,0.0159669823155701,-0.006486661467106,-0.00301842677949581,No
1493002372.2,40.4513334506612,-79.9454023305946,3.2899999618530296,0.06964111328125,-0.8907318115234379,0.463287353515625,0.0445855777056706,0.0326897697485046,0.0280936863392459,No
1493002372.4,40.4513334506612,-79.9454023305946,3.2899999618530296,0.0673675537109375,-0.909271240234375,0.453948974609375,-0.0185153611626669,0.0437291050991011,-0.0237591253490329,No
1493002372.6,40.4513334506612,-79.9454023305946,3.2899999618530296,0.0349884033203125,-0.924346923828125,0.459442138671875,-0.0397013402664653,-0.00931254169978908,0.0166769810621852,No
1493002372.8,40.4513334506612,-79.9454023305946,3.2899999618530296,0.0697784423828125,-0.8774566650390621,0.413955688476562,-0.0105008441781824,0.0234704386868683,0.00196434762004245,No
1493002373.0,40.4513334506612,-79.9454023305946,3.2899999618530296,0.0703277587890625,-0.9152984619140621,0.442794799804688,-0.0009901632932914608,0.0255370516927698,0.00845367224823853,No
1493002373.2,40.4513731663724,-79.9454194248522,5.05999994277954,0.07855224609375,-0.871826171875,0.40313720703125,-0.0103122923730048,-0.00737109726512132,0.0489592871639077,No
1493002373.4,40.4513731663724,-79.9454194248522,5.05999994277954,0.0623931884765625,-0.920623779296875,0.424224853515625,-0.0389268930214702,-0.0167608706365227,0.0337635563000246,No
1493002373.6,40.4513731663724,-79.9454194248522,5.05999994277954,0.06005859375,-0.897216796875,0.431488037109375,-0.0981505356587613,0.0442444267700314,-0.0405689981496131,No
1493002373.8,40.4513731663724,-79.9454194248522,5.05999994277954,0.059661865234375,-0.90032958984375,0.3887939453125,0.0305682956241475,-0.0374285985921916,0.00254198726048063,No
1493002374.0,40.4513731663724,-79.9454194248522,5.05999994277954,0.009368896484375,-0.8570556640625,0.49114990234375,-0.0392046607231655,0.0236565936470649,-0.00152865446570548,No
1493002374.2,40.4513780436491,-79.9454215241077,6.82000017166138,0.0078887939453125,-0.8762664794921879,0.416397094726562,-0.0569815273155534,0.0141941159779043,-0.0304740197215587,No
1493002374.4,40.4513780436491,-79.9454215241077,6.82000017166138,0.1558837890625,-0.8149566650390621,0.395721435546875,0.0282843686732956,-0.050177683362619,0.00681636081005781,No
1493002374.6,40.4513780436491,-79.9454215241077,6.82000017166138,0.257354736328125,-0.8677520751953121,0.384384155273438,0.0185257474909182,0.0753927588795982,-0.0671763742844857,No
1493002374.8,40.4513780436491,-79.9454215241077,6.82000017166138,0.21754455566406197,-0.95428466796875,0.4239501953125,-0.0111977934354562,-0.11160855391136801,0.0566827206412465,No
1493002375.0,40.4513780436491,-79.9454215241077,6.82000017166138,0.0384063720703125,-0.91265869140625,0.3868408203125,0.0281498790382466,-0.0661324151371747,0.00792237161076772,No
1493002375.2,40.4513780436491,-79.9454215241077,8.39000034332275,0.104171752929688,-0.857757568359375,0.471237182617188,0.0961283974430641,-0.0644325194133771,0.0992421653895848,No
1493002375.4,40.4513780436491,-79.9454215241077,8.39000034332275,0.0040130615234375,-0.9304351806640621,0.454910278320312,-0.0164974840047139,-0.0498732840500229,0.0884555640264369,No
1493002375.6,40.4513780436491,-79.9454215241077,8.39000034332275,-0.136703491210938,-0.861358642578125,0.44879150390625,0.0128071416821911,-0.14046949696066502,0.154028449018586,No
1493002375.8,40.4513780436491,-79.9454215241077,8.39000034332275,0.0094146728515625,-0.911346435546875,0.416595458984375,-0.0498554408707194,0.0577554419283304,-0.0603674703254801,No
1493002376.0,40.4513780436491,-79.9454215241077,8.39000034332275,0.00469970703125,-0.926849365234375,0.439971923828125,-0.0530062267563921,0.040766871018606,0.00468316877690434,No
1493002376.2,40.451564130289,-79.9455024990074,10.1800003051758,0.0762939453125,-0.927581787109375,0.451751708984375,-0.14747307799535597,0.0318034697377263,-0.0229162348640228,No
1493002376.4,40.451564130289,-79.9455024990074,10.1800003051758,0.0110321044921875,-0.9513397216796879,0.43145751953125,-0.123278792124204,0.16672879794106502,-0.0827247076766953,No
1493002376.6,40.451564130289,-79.9455024990074,10.1800003051758,0.1534423828125,-0.8541107177734379,0.382308959960938,-0.04742344216325901,0.0173361134319798,0.050647997611127,No
1493002376.8,40.451564130289,-79.9455024990074,10.1800003051758,0.126373291015625,-0.879119873046875,0.314132690429688,-0.0236408809966334,-0.0859876126442604,0.12366068942452099,No
1493002377.0,40.451564130289,-79.9455024990074,10.1800003051758,0.0743255615234375,-0.9641265869140621,0.312240600585938,0.0671388237131156,-0.0599983561983952,0.0413583590967126,No
1493002377.2,40.4516698029299,-79.9455484898436,11.470000267028801,-0.0149078369140625,-0.923095703125,0.384002685546875,0.0076616481400489595,-0.0106779443906727,0.0566153426656675,No
1493002377.4,40.4516698029299,-79.9455484898436,11.470000267028801,-0.053253173828125,-0.921173095703125,0.353012084960938,-0.0664570544740553,0.119559421345799,-0.0585645102674965,No
1493002377.6,40.4516698029299,-79.9455484898436,11.470000267028801,0.078826904296875,-0.9391021728515621,0.328659057617188,-0.0488487659786694,0.144969706570681,-0.0861713707594759,No
1493002377.8,40.4516698029299,-79.9455484898436,11.470000267028801,0.03094482421875,-0.9619598388671879,0.313766479492188,-0.0399857658708857,0.0438707852690933,-0.0111847439461148,No
1493002378.0,40.4516698029299,-79.9455484898436,11.470000267028801,-0.122238159179688,-0.91766357421875,0.328720092773438,0.0305757524751997,-0.0767773363303304,0.0580867391679363,No
1493002378.2,40.451775298375104,-79.9455944035608,12.279999732971199,-0.010040283203125,-0.9552764892578121,0.33526611328125,-0.0255666127808697,-0.12321088151640701,0.0885519704578977,No
1493002378.4,40.451775298375104,-79.9455944035608,12.279999732971199,0.0839691162109375,-0.9428253173828121,0.296844482421875,0.0403708589645112,-0.15129790995292802,0.0797036177361095,No
1493002378.6,40.451775298375104,-79.9455944035608,12.279999732971199,0.0121307373046875,-0.8983154296875,0.36517333984375,0.0010442254634200699,-0.0723333194193152,0.0396472780963366,No
1493002378.8,40.451775298375104,-79.9455944035608,12.279999732971199,-0.0171966552734375,-0.984619140625,0.283920288085938,-0.0218307304037065,0.0139653504402665,-0.0311797574104297,No
1493002379.0,40.451775298375104,-79.9455944035608,12.279999732971199,0.0136566162109375,-0.902557373046875,0.300918579101562,-0.0521420309826614,0.075856947857599,-0.0391133142977758,No
1493002379.2,40.4518889311708,-79.94564385881479,12.8999996185303,0.114273071289062,-0.940826416015625,0.215057373046875,-0.0455259398865776,0.0768750743423363,-0.0550414144614307,No
1493002379.4,40.4518889311708,-79.94564385881479,12.8999996185303,0.0829315185546875,-0.9327850341796879,0.23341369628906197,-0.0104883273210591,0.0596273778585471,-0.0567706049572191,No
1493002379.6,40.4518889311708,-79.94564385881479,12.8999996185303,0.127578735351562,-0.91009521484375,0.261444091796875,-0.087720797881684,-0.0270838156538878,0.0140987748108795,No
1493002379.8,40.4518889311708,-79.94564385881479,12.8999996185303,0.151824951171875,-0.9644317626953121,0.24955749511718803,-0.00731810035942874,0.126627184562761,-0.0185273453875723,No
1493002380.0,40.4518889311708,-79.94564385881479,12.8999996185303,0.049468994140625,-0.9163818359375,0.266372680664062,0.0409793912735943,-0.103437443054787,0.0614606979529577,No
1493002380.2,40.4519992554584,-79.94569187414021,13.0699996948242,0.0280609130859375,-0.8922882080078121,0.2257080078125,0.0127434921321382,-0.0181672860081935,-0.00728614242634779,No
1493002380.4,40.4519992554584,-79.94569187414021,13.0699996948242,0.07781982421875,-0.934356689453125,0.2564697265625,0.00391804259572458,-0.0181062996192307,0.0150138369614307,No
1493002380.6,40.4519992554584,-79.94569187414021,13.0699996948242,0.104766845703125,-1.00479125976562,0.19718933105468803,0.00458463181657141,-0.0223612320928503,0.0416869931752283,No
1493002380.8,40.4519992554584,-79.94569187414021,13.0699996948242,0.103546142578125,-0.9306640625,0.21089172363281197,0.0144154246644899,0.0392605871060571,-0.0202117947770474,No
1493002381.0,40.4519992554584,-79.94569187414021,13.0699996948242,0.129119873046875,-0.90618896484375,0.21429443359375,-0.0674525440895269,0.10148028596968699,-0.0734550428704565,No
1493002381.2,40.452110196020996,-79.9457401576808,12.960000038147,0.10955810546875,-0.9306488037109379,0.207183837890625,-0.0102792691754878,0.0777083774474221,-0.0621461956175441,No
1493002381.4,40.452110196020996,-79.9457401576808,12.960000038147,0.0999755859375,-0.974212646484375,0.22142028808593803,-0.0334202748355134,-0.0125560055913966,-0.0546866814042321,No
1493002381.6,40.452110196020996,-79.9457401576808,12.960000038147,-0.031219482421875,-0.9571685791015621,0.23326110839843803,-0.000208259197244196,-0.0329619448119107,0.0747179138593721,No
1493002381.8,40.452110196020996,-79.9457401576808,12.960000038147,-0.016387939453125,-0.9786376953125,0.20329284667968803,0.0281743801202753,0.0125767782478992,-0.0285317763385639,No
1493002382.0,40.452110196020996,-79.9457401576808,12.960000038147,-0.0941009521484375,-0.9703369140625,0.133224487304688,0.106398345554737,-0.145332162795041,0.16033028710604,No
1493002382.2,40.4522200233139,-79.9457879567043,12.6999998092651,0.0621490478515625,-0.9154205322265621,0.2760009765625,0.0477574025639549,-0.164110910589517,0.0776798816237582,No
1493002382.4,40.4522200233139,-79.9457879567043,12.6999998092651,-0.0305633544921875,-0.9518585205078121,0.226654052734375,-0.00688560299839987,-0.0967438539709815,0.0609533657652976,No
1493002382.6,40.4522200233139,-79.9457879567043,12.6999998092651,0.0064544677734375,-1.01809692382812,0.21434020996093803,0.0018450380032069,0.00636175921198128,-0.0533082292240071,No
1493002382.8,40.4522200233139,-79.9457879567043,12.6999998092651,0.11981201171875,-0.961700439453125,0.19252014160156197,0.00023089606650987003,0.0457272748649875,-0.0694195548706595,No
1493002383.0,40.4522200233139,-79.9457879567043,12.6999998092651,0.138427734375,-0.949676513671875,0.286300659179688,-0.0511263013429052,-0.0464625736419584,0.0529071571638412,No
1493002383.2,40.4523297420221,-79.9458357084695,12.529999732971199,-0.0311126708984375,-0.9580078125,0.260940551757812,-0.0468655099148874,-0.0507579861641472,-0.0270041871372945,No
1493002383.4,40.4523297420221,-79.9458357084695,12.529999732971199,0.0819244384765625,-0.9583740234375,0.1759033203125,0.0281930222479058,0.0072573802865749295,-0.0327827140705484,No
1493002383.6,40.4523297420221,-79.9458357084695,12.529999732971199,0.0520782470703125,-0.94720458984375,0.20243835449218803,-0.0561982916389611,0.004630438187320771,0.0623193010883992,No
1493002383.8,40.4523297420221,-79.9458357084695,12.529999732971199,0.131362915039062,-0.9288482666015621,0.21661376953125,0.0026570358195720603,-0.102124504637378,0.0610649522149719,No
1493002384.0,40.4523297420221,-79.9458357084695,12.529999732971199,0.0817413330078125,-0.8889617919921879,0.269302368164062,-0.0279346956221682,-0.0157725715559943,0.00935062490337721,No
1493002384.2,40.45243854924821,-79.9458830635396,12.3000001907349,0.18194580078125,-0.9286651611328121,0.24761962890625,-0.0529079561121682,0.10137748795161,-0.124484138833574,No
1493002384.4,40.45243854924821,-79.9458830635396,12.3000001907349,0.0727691650390625,-0.8987274169921879,0.269866943359375,-0.0766407161664093,0.0207106048492192,0.00875780524472558,No
1493002384.6,40.45243854924821,-79.9458830635396,12.3000001907349,0.163726806640625,-0.8905792236328121,0.179443359375,-0.0149680305906813,-0.0562715285689383,0.0511702435008915,No
1493002384.8,40.45243854924821,-79.9458830635396,12.3000001907349,0.103012084960938,-0.935302734375,0.210418701171875,-0.14555000937221,0.0413676801605278,-0.00266316109007924,No
1493002385.0,40.45243854924821,-79.9458830635396,12.3000001907349,-0.02069091796875,-0.9976806640625,0.191131591796875,-0.0606878486046167,0.07804047363535499,-0.0360078021506344,No
1493002385.2,40.45243854924821,-79.9458830635396,12.3000001907349,0.044097900390625,-0.8958740234375,0.27716064453125,-0.028333637153462005,0.0182642250718724,-0.0205952899740188,No
1493002385.4,40.4524812127284,-79.94590163153521,12.3999996185303,-0.0265045166015625,-0.948272705078125,0.29034423828125,0.00251029564350869,0.0584888764925382,0.00413961759841917,No
1493002385.6,40.4524812127284,-79.94590163153521,12.3999996185303,0.0282745361328125,-0.9265289306640621,0.247100830078125,0.0119850238536836,-0.00859162399270463,-0.0243780439863673,No
1493002385.8,40.4524812127284,-79.94590163153521,12.3999996185303,0.0602569580078125,-0.954742431640625,0.2745361328125,-0.0616705550468559,0.0174210682707533,0.00252227986841405,No
1493002386.0,40.4524812127284,-79.94590163153521,12.3999996185303,0.035491943359375,-0.995208740234375,0.24098205566406197,-0.0325198600709576,-0.010419884081044,0.0359452178650175,No
1493002386.2,40.4524812127284,-79.94590163153521,12.3999996185303,0.0029754638671875,-0.9426422119140621,0.24308776855468803,-0.00536440538374661,0.0447030231097431,-0.0502823455934591,No
1493002386.4,40.4526532679521,-79.9459808149221,12.609999656677198,0.037322998046875,-0.9363555908203121,0.23899841308593803,0.0193662411309472,0.040296556770097997,0.00755778485753587,No
1493002386.6,40.4526532679521,-79.9459808149221,12.609999656677198,0.04058837890625,-0.949798583984375,0.25360107421875,-0.00164530092145095,-0.0148758852169646,0.0341403935942708,No
1493002386.8,40.4526532679521,-79.9459808149221,12.609999656677198,0.0216827392578125,-0.9077606201171879,0.269134521484375,-0.0159483401879395,0.0128691933355899,0.00513457458167277,No
1493002387.0,40.4526532679521,-79.9459808149221,12.609999656677198,0.017974853515625,-0.939117431640625,0.218994140625,-0.025208683930362998,0.0129256523506996,-0.018417090518443,No
1493002387.2,40.4527575908424,-79.9460289216466,12.8000001907349,0.101791381835938,-0.949188232421875,0.262710571289062,0.00220536369869462,-0.0074619110582930205,-0.00955409041065927,No
1493002387.4,40.4527575908424,-79.9460289216466,12.8000001907349,0.0488433837890625,-0.9777374267578121,0.22503662109375,0.0161107930144344,0.0243612660714998,0.0033007218550442103,No
1493002387.6,40.4527575908424,-79.9460289216466,12.8000001907349,-0.014801025390625,-0.9629364013671879,0.22770690917968803,0.018654644487678,-0.0479744501927964,0.0888105633997444,No
1493002387.8,40.4527575908424,-79.9460289216466,12.8000001907349,-0.0036468505859375,-0.9626617431640621,0.23396301269531197,-0.00970908638610188,0.00857511239394614,0.0137392480637188,No
1493002388.0,40.4527575908424,-79.9460289216466,12.8000001907349,0.095550537109375,-0.9860992431640621,0.20829772949218803,-0.026619626675887,0.0214493657356072,0.0114004599944112,No
1493002388.2,40.45287063928679,-79.9460810520119,13.2399997711182,-0.0253448486328125,-0.8794708251953121,0.2374267578125,-0.0231050529853095,-0.0445211292072907,0.0297323293579716,No
1493002388.4,40.45287063928679,-79.9460810520119,13.2399997711182,-0.040740966796875,-1.01522827148438,0.18568420410156197,-0.0227370041226605,0.0331180060517894,-0.0323046766548792,No
1493002388.6,40.45287063928679,-79.9460810520119,13.2399997711182,0.0709991455078125,-0.9470672607421879,0.234161376953125,-0.0226757514175887,0.0256702097472738,-0.0408145416021184,No
1493002388.8,40.45287063928679,-79.9460810520119,13.2399997711182,-0.0045318603515625,-0.9427642822265621,0.23085021972656197,0.052363073353138,-0.085435273034178,0.0178160150604121,No
1493002389.0,40.45287063928679,-79.9460810520119,13.2399997711182,-0.0273895263671875,-0.888916015625,0.2354736328125,-0.0368967653225028,0.0161928183760088,-0.0185451885668758,No
1493002389.2,40.4529839420145,-79.94613329963559,13.4099998474121,-0.0323028564453125,-0.9664154052734379,0.160247802734375,-0.0635438225576176,0.0567788607565984,-0.0722334508784372,No
1493002389.4,40.4529839420145,-79.94613329963559,13.4099998474121,0.05145263671875,-0.985748291015625,0.191009521484375,-0.0449251307446557,-0.0486407730975342,-0.0120627881575139,No
1493002389.6,40.4529839420145,-79.94613329963559,13.4099998474121,0.0159149169921875,-0.9302215576171879,0.24774169921875,0.0167901654085136,-0.057539725880034004,0.0642932360883659,No
1493002389.8,40.4529839420145,-79.94613329963559,13.4099998474121,-0.0307464599609375,-0.968994140625,0.187774658203125,0.0363241856881358,-0.0651177507618545,0.0335925813580415,No
1493002390.0,40.4529839420145,-79.94613329963559,13.4099998474121,0.110076904296875,-0.9617156982421879,0.130126953125,-0.0396363591358673,0.0566177395106486,-0.10717332543195,No
1493002390.2,40.4530973829566,-79.9461856109945,13.3500003814697,0.07806396484375,-0.97052001953125,0.144775390625,-0.0717791155964697,-0.0388890761339911,0.0100276004524754,No
1493002390.4,40.4530973829566,-79.9461856109945,13.3500003814697,0.0006256103515625,-0.99847412109375,0.111709594726562,-0.00661742267662889,-0.0499534451988343,-0.0106009790351694,No
1493002390.6,40.4530973829566,-79.9461856109945,13.3500003814697,-0.010650634765625,-0.9744110107421879,0.10400390625,-0.0502434634415439,-0.040095754423906,-0.00787443471114629,No
1493002390.8,40.4530973829566,-79.9461856109945,13.3500003814697,-0.108535766601562,-0.950408935546875,0.16050720214843803,0.00767336604884531,0.0754657294934664,-0.0523606765081569,No
1493002391.0,40.4530973829566,-79.9461856109945,13.3500003814697,0.0062255859375,-1.01235961914062,0.125869750976562,0.0011685950863267699,-0.0329869785261575,-0.0254920442703475,No
1493002391.2,40.4532067095749,-79.94623602510299,12.640000343322802,0.02728271484375,-1.01296997070312,0.082672119140625,-0.0312607175075681,-0.0157494020545106,0.0189124384811977,No
1493002391.4,40.4532067095749,-79.94623602510299,12.640000343322802,-0.021820068359375,-0.9614410400390621,0.0707244873046875,-0.056396697140172,-0.0432374855618725,0.0507124461095069,No
1493002391.6,40.4532067095749,-79.94623602510299,12.640000343322802,0.108352661132812,-1.00198364257812,-0.0014495849609375,-0.0405564812924897,0.0491877863854365,-0.0442569436271548,No
1493002391.8,40.4532067095749,-79.94623602510299,12.640000343322802,-0.11529541015625,-1.00334167480469,-0.016510009765625,0.00944889554760114,-0.0660037844565238,0.0514453480414967,No
1493002392.0,40.4532067095749,-79.94623602510299,12.640000343322802,0.0211334228515625,-1.02935791015625,-0.09307861328125,-0.0451770657837772,0.0609115541361833,-0.0891154953445585,No
1493002392.2,40.4533078762479,-79.9462826763917,11.270000457763699,0.0128631591796875,-0.982818603515625,0.0106964111328125,-0.0361436233662284,-0.00189324121893733,-0.00569623525557048,No
1493002392.4,40.4533078762479,-79.9462826763917,11.270000457763699,0.02838134765625,-1.00985717773438,0.003509521484375,-0.0306649683717174,0.0512474751725038,-0.0654852669922854,No
1493002392.6,40.4533078762479,-79.9462826763917,11.270000457763699,0.03485107421875,-1.03709411621094,0.021484375,0.00199896871421348,-0.0563935013468639,-0.0211582822284615,No
1493002392.8,40.4533078762479,-79.9462826763917,11.270000457763699,0.0080413818359375,-1.03164672851562,-0.0210723876953125,0.0110475911499757,-0.0553822990809608,0.0183816704759449,No
1493002393.0,40.4533078762479,-79.9462826763917,11.270000457763699,-0.022369384765625,-1.02249145507812,-0.010711669921875,-0.00953651354746474,-0.0946053356156478,0.0225370007247956,No
1493002393.2,40.453392352603295,-79.94632163122459,9.36999988555908,0.004974365234375,-1.06338500976562,-0.0727386474609375,-0.0351148442371308,-0.0242395596096832,-0.015223960371438,No
1493002393.4,40.453392352603295,-79.94632163122459,9.36999988555908,-0.004730224609375,-1.02143859863281,-0.119705200195312,-0.0398478141264196,-0.0327137381983153,0.0146034438374495,No
1493002393.6,40.453392352603295,-79.94632163122459,9.36999988555908,0.039825439453125,-1.00349426269531,-0.103912353515625,-0.0434675826800553,0.00559956250800061,-0.0111216270282799,No
1493002393.8,40.453392352603295,-79.94632163122459,9.36999988555908,0.0447845458984375,-1.03964233398438,-0.107757568359375,-0.0296500376802882,0.0140204778748312,-0.004604605524747,No
1493002394.0,40.453392352603295,-79.94632163122459,9.36999988555908,-0.0218353271484375,-1.10108947753906,-0.120254516601562,-0.000989364344964437,-0.0244496830196905,0.0586947388448014,No
1493002394.2,40.453448100258704,-79.94634733830671,6.78999996185303,-0.02325439453125,-0.983642578125,-0.0783843994140625,-0.04607774686444201,-0.0135264614926215,0.0134239297906534,No
1493002394.4,40.453448100258704,-79.94634733830671,6.78999996185303,0.0273590087890625,-1.03169250488281,-0.104202270507812,-0.0436374923576024,0.0545255601582823,-0.0496333332358068,No
1493002394.6,40.453448100258704,-79.94634733830671,6.78999996185303,0.104217529296875,-1.02455139160156,-0.111221313476562,-0.0227250198977551,0.0405644707757599,-0.0291251286294336,No
1493002394.8,40.453448100258704,-79.94634733830671,6.78999996185303,0.06097412109375,-1.04295349121094,-0.136978149414062,-0.0143003761053985,0.0554041370018995,-0.014150173819918002,No
1493002395.0,40.453448100258704,-79.94634733830671,6.78999996185303,-0.016143798828125,-1.04763793945312,-0.0830230712890625,-0.00810772762263723,0.0351537263890459,-0.0108358698433144,No
1493002395.2,40.45348598034379,-79.9463648060629,3.70000004768372,0.0590667724609375,-1.04429626464844,-0.0797271728515625,-0.0230645729367402,0.0246134674267303,-0.0130942304477016,No
1493002395.4,40.45348598034379,-79.9463648060629,3.70000004768372,0.0164642333984375,-1.0203857421875,-0.0666351318359375,-0.0121030018899741,0.0351766295744206,-0.0300686866036486,No
1493002395.6,40.45348598034379,-79.9463648060629,3.70000004768372,0.0295562744140625,-1.0196533203125,-0.0817718505859375,-0.0305243534661612,0.0257258698140564,-0.0121072629477182,No
1493002395.8,40.45348598034379,-79.9463648060629,3.70000004768372,0.0258331298828125,-0.9976959228515621,0.030670166015625,-0.0154729659333604,0.0352005980242313,-0.017308682872751998,No
1493002396.0,40.45348598034379,-79.9463648060629,3.70000004768372,0.0565032958984375,-0.966552734375,0.191619873046875,0.0066427227069846394,0.00846432489259884,-0.013814615522568,No
1493002396.2,40.4535045474194,-79.9463733679537,1.04999995231628,0.0700531005859375,-0.936370849609375,0.25872802734375,-0.000689226090112507,0.0265953919099673,-0.0128702586000259,No
1493002396.4,40.4535045474194,-79.9463733679537,1.04999995231628,0.0818023681640625,-0.9318389892578121,0.30609130859375,-0.00910188565756381,0.0543079798972229,-0.00556440878161156,No
1493002396.6,40.4535045474194,-79.9463733679537,1.04999995231628,0.0985565185546875,-0.919647216796875,0.346527099609375,-0.000315051956956374,0.0744601198658525,-0.0140561642334382,No
1493002396.8,40.4535045474194,-79.9463733679537,1.04999995231628,0.123809814453125,-0.933502197265625,0.356735229492188,-0.00847204805976007,0.11280617745357599,-0.0195697066382293,No
1493002397.0,40.4535045474194,-79.9463733679537,1.04999995231628,0.121566772460938,-0.900970458984375,0.3560791015625,-0.0217010344586197,0.155437527551347,-0.041139447255108,No
1493002397.2,40.4535164004126,-79.9463788337597,1.67999994754791,0.150146484375,-0.92596435546875,0.346542358398438,-0.0242227816948157,0.200126169591203,-0.0658035147425499,No
1493002397.4,40.4535164004126,-79.9463788337597,1.67999994754791,0.084197998046875,-0.7971038818359379,0.3795166015625,-0.0431003327657334,0.238542800947814,-0.0660959298302406,No
1493002397.6,40.4535164004126,-79.9463788337597,1.67999994754791,0.22303771972656197,-0.99560546875,0.29620361328125,-0.0277227079993978,0.266096398217992,-0.08520144749046901,No
1493002397.8,40.4535164004126,-79.9463788337597,1.67999994754791,0.1387939453125,-0.9073486328125,0.321807861328125,0.0510453412457668,0.38684651888716604,-0.0943025341997058,No
1493002398.0,40.4535164004126,-79.9463788337597,1.67999994754791,0.18885803222656197,-0.861175537109375,0.357467651367188,0.00346876731982821,0.33503764935687397,-0.0701330157266917,No
1493002398.2,40.4535385921067,-79.9463890670816,3.32999992370605,0.13568115234375,-0.7088470458984379,0.396621704101562,-0.0601666679792882,0.504544923263218,-0.306855279753328,No
1493002398.4,40.4535385921067,-79.9463890670816,3.32999992370605,0.418075561523438,-0.9654388427734379,0.3104248046875,-0.125799207779855,0.6570923883996109,-0.252477791351654,No
1493002398.6,40.4535385921067,-79.9463890670816,3.32999992370605,0.318588256835938,-0.9566192626953121,0.2962646484375,-0.0802618163005901,0.47703979552488,-0.17691192700120104,No
1493002398.8,40.4535385921067,-79.9463890670816,3.32999992370605,0.396377563476562,-0.8561553955078121,0.23234558105468803,-0.0460266141715125,0.469368560004906,-0.19253482890393303,No
1493002399.0,40.4535385921067,-79.9463890670816,3.32999992370605,0.285690307617188,-0.750640869140625,0.20921325683593803,-0.0497491807432252,0.376872181656492,-0.0494615593454967,No
1493002399.2,40.4535385921067,-79.9463890670816,3.32999992370605,0.16334533691406197,-0.9527130126953121,0.641952514648438,0.10430669883458801,0.40991615182997704,-0.005320995857978321,No
1493002399.4,40.4535629500043,-79.94640029931129,4.71000003814697,0.309066772460938,-0.877288818359375,0.34759521484375,-0.0347835469975249,0.3618932321053421,0.0157693757626862,No
1493002399.6,40.4535629500043,-79.94640029931129,4.71000003814697,0.635284423828125,-1.0596923828125,0.41168212890625,-0.225957500584427,0.6428263670722739,-0.41126610818653897,No
1493002399.8,40.4535629500043,-79.94640029931129,4.71000003814697,0.476165771484375,-0.9470062255859379,0.286727905273438,-0.150409213097168,0.615765188287652,-0.266483888156599,No
1493002400.0,40.4535629500043,-79.94640029931129,4.71000003814697,0.255966186523438,-0.821441650390625,0.364120483398438,-0.051186222467432006,0.33644859210239797,-0.12187450728140499,No
1493002400.2,40.4535629500043,-79.94640029931129,4.71000003814697,0.0909423828125,-1.00201416015625,0.405624389648438,-0.0371439066716622,0.152352788060708,-0.00397210476585318,No
1493002400.4,40.453547215251,-79.9464793721317,5.71000003814697,0.124679565429688,-0.8929290771484379,0.43023681640625,0.0348551860308481,0.0540310111438546,0.0503294835447535,No
1493002400.6,40.453547215251,-79.9464793721317,5.71000003814697,0.19281005859375,-0.9725799560546879,0.329193115234375,-0.0315675136651452,0.26079750659706197,-0.11827977244201598,No
1493002400.8,40.453547215251,-79.9464793721317,5.71000003814697,0.0576934814453125,-0.9754180908203121,0.439483642578125,0.0489222692247556,0.126263663073965,-0.0040898164860346895,No
1493002401.0,40.453547215251,-79.9464793721317,5.71000003814697,-0.042999267578125,-0.8940887451171879,0.518096923828125,-0.10098999801300398,0.18254184954562802,-0.0686765329265274,No
1493002401.2,40.453522979706605,-79.94655196661941,7.349999904632571,0.345367431640625,-0.784088134765625,0.208709716796875,0.130373719584284,-0.072091504392336,0.16038674612115,No
1493002401.4,40.453522979706605,-79.94655196661941,7.349999904632571,0.164459228515625,-0.748809814453125,0.32806396484375,-0.0645401111214163,0.147196109241988,-0.10552962240715301,No
1493002401.6,40.453522979706605,-79.94655196661941,7.349999904632571,0.20466613769531197,-1.01316833496094,0.29815673828125,-0.0560337082835942,-0.0528059570424182,0.0965880590472118,No
1493002401.8,40.453522979706605,-79.94655196661941,7.349999904632571,0.0555267333984375,-0.8762359619140621,0.449447631835938,0.0145746816976766,0.0318234434459019,0.0416494426038582,No
1493002402.0,40.453522979706605,-79.94655196661941,7.349999904632571,0.073455810546875,-0.8237457275390621,0.247406005859375,0.09293100623831499,0.11213133243335001,-0.11448902894639698,No
1493002402.2,40.453492970499504,-79.94664185537829,9.06999969482422,0.0968475341796875,-1.03190612792969,0.312835693359375,-0.13973073607427697,0.17958227862622303,-0.195945006679779,No
1493002402.4,40.453492970499504,-79.94664185537829,9.06999969482422,0.278274536132812,-0.837493896484375,0.281402587890625,-0.0804746028716874,0.22175370080373702,-0.14533509227224,No
1493002402.6,40.453492970499504,-79.94664185537829,9.06999969482422,0.0467529296875,-1.05899047851562,0.310714721679688,0.116294385849362,-0.11988113120548101,0.0740025887905768,No
1493002402.8,40.453492970499504,-79.94664185537829,9.06999969482422,0.0686187744140625,-1.02375793457031,0.2320556640625,0.0351766295744206,0.0455022377528758,-0.0552004051785084,No
1493002403.0,40.453492970499504,-79.94664185537829,9.06999969482422,0.056610107421875,-0.7580108642578121,0.282623291015625,0.0433749046741205,0.0731117614059453,-0.016804013846182,No
1493002403.2,40.4534584959797,-79.9467451802889,9.85000038146973,0.134933471679688,-1.00045776367188,0.0672454833984375,0.00472924146376271,-0.0883077585859375,0.0727788662696854,No
1493002403.4,40.4534584959797,-79.9467451802889,9.85000038146973,0.083770751953125,-0.9734649658203121,0.338424682617188,0.12851163735010102,-0.0104063019594846,0.0194682402006972,No
1493002403.6,40.4534584959797,-79.9467451802889,9.85000038146973,0.0993804931640625,-0.9276580810546879,0.2939453125,-0.0738659686266558,0.00580409327971869,0.0312151774529278,No
1493002403.8,40.4534584959797,-79.9467451802889,9.85000038146973,0.104827880859375,-1.13726806640625,0.281326293945312,-0.133571643421251,-0.00126580046611466,-0.0450790614556623,No
1493002404.0,40.4534584959797,-79.9467451802889,9.85000038146973,0.00537109375,-1.150146484375,0.271026611328125,-0.0539053099404029,0.0641622085627341,-0.0721538223618438,No
1493002404.2,40.4534249167462,-79.94685078997391,10.270000457763699,0.055877685546875,-1.128662109375,0.284027099609375,-0.0419660924574686,0.0247333096757839,-0.0324799126546064,No
1493002404.4,40.4534249167462,-79.94685078997391,10.270000457763699,0.08447265625,-1.01654052734375,0.1851806640625,-0.0554169201751318,0.0918239301731691,-0.102094677233169,Yes
1493002404.6,40.4534249167462,-79.94685078997391,10.270000457763699,-0.278640747070312,-0.408981323242188,0.20170593261718803,0.014316887704157,-0.257478941562714,0.21298763975963197,Yes
1493002404.8,40.4534249167462,-79.94685078997391,10.270000457763699,0.212310791015625,-0.98651123046875,0.113906860351562,-0.113422965562039,0.0443480237364355,-0.0140702789872156,Yes
1493002405.0,40.4534249167462,-79.94685078997391,10.270000457763699,0.446441650390625,-0.834808349609375,0.068145751953125,-0.111110809103632,0.0113775568090365,0.109719307434066,Yes
1493002405.2,40.4533893894103,-79.9469625266145,10.2799997329712,0.31488037109375,-1.0286865234375,0.055908203125,-0.0499579725726874,0.092863095630518,-0.0338037700324848,Yes
1493002405.4,40.4533893894103,-79.9469625266145,10.2799997329712,-0.038726806640625,-0.97784423828125,0.12969970703125,0.0270806198605797,-0.12462262321025802,0.053909570998147,Yes
1493002405.6,40.4533893894103,-79.9469625266145,10.2799997329712,-0.0555877685546875,-0.9120941162109379,0.037872314453125,-0.0814099050465232,0.0802961710786521,-0.0767419162878323,Yes
1493002405.8,40.4533893894103,-79.9469625266145,10.2799997329712,-0.0846405029296875,-1.05769348144531,0.258636474609375,0.00692714831140511,-0.0681228617358999,0.00131293841740906,Yes
1493002406.0,40.4533893894103,-79.9469625266145,10.2799997329712,-0.06243896484375,-1.11468505859375,-0.0738067626953125,0.00336996404338627,-0.0117258982796189,-0.0191270892650581,Yes
1493002406.2,40.453356444966296,-79.9470661398294,9.14000034332275,0.0308380126953125,-1.0211181640625,-0.0171356201171875,-0.00539156962686542,-0.00315557957563489,0.00315158483399977,Yes
1493002406.4,40.453356444966296,-79.9470661398294,9.14000034332275,-0.006591796875,-1.01286315917969,-0.02935791015625,-0.0189193627000319,-0.0445474945020824,0.0351063221216425,Yes
1493002406.6,40.453356444966296,-79.9470661398294,9.14000034332275,0.0111083984375,-1.13591003417969,-0.15699768066406197,0.000550741713428386,-0.0606348516989241,0.00442697268003872,No
1493002406.8,40.453356444966296,-79.9470661398294,9.14000034332275,0.0092315673828125,-1.00503540039062,-0.133544921875,-0.0253346514499238,0.0852547107122706,-0.0473928158107231,No
1493002407.0,40.453356444966296,-79.9470661398294,9.14000034332275,0.125396728515625,-1.03927612304688,-0.12567138671875,-0.0303632322202114,0.0257229403368573,-0.0238339601756641,No
1493002407.2,40.4533304636779,-79.94714785329921,6.57000017166138,0.132415771484375,-1.02449035644531,-0.14634704589843803,-0.0179539668048782,0.0118169783888996,-0.00447917063740427,No
1493002407.4,40.4533304636779,-79.94714785329921,6.57000017166138,0.0180816650390625,-1.05612182617188,-0.13616943359375,-0.0111834123655697,0.049001897741349006,-0.0119693112032521,No
1493002407.6,40.4533304636779,-79.94714785329921,6.57000017166138,0.0012359619140625,-1.05093383789062,-0.120376586914062,-0.0073572488274529,-0.0105913916552451,-0.0128425617246891,No
1493002407.8,40.4533304636779,-79.94714785329921,6.57000017166138,0.0402069091796875,-1.01470947265625,-0.106292724609375,-0.0124904918285806,0.0128436269891251,-0.0140218094553762,No
1493002408.0,40.4533304636779,-79.94714785329921,6.57000017166138,0.0082244873046875,-1.02470397949219,-0.0918121337890625,0.000722515603738497,-0.0202131263575924,0.0139203430178442,No
1493002408.2,40.4533250371515,-79.94716492020879,2.5499999523162797,0.011322021484375,-1.00396728515625,0.060821533203125,0.00318087960599064,-0.009594836775337479,-0.00420752820621619,No
1493002408.4,40.4533250371515,-79.94716492020879,2.5499999523162797,0.04864501953125,-0.976654052734375,0.128646850585938,-0.00929230167550448,0.00750372268740726,-0.017173926921594,No
1493002408.6,40.4533250371515,-79.94716492020879,2.5499999523162797,0.04345703125,-0.9662322998046879,0.13067626953125,-0.0125983498527288,0.00433509362243098,-0.0108023140135794,No
1493002408.8,40.4533250371515,-79.94716492020879,2.5499999523162797,0.031463623046875,-0.9671478271484379,0.16023254394531197,-0.0045412222908031204,-0.0180519711329931,0.0106622317402412,No
1493002409.0,40.4533250371515,-79.94716492020879,2.5499999523162797,0.0409698486328125,-0.9783935546875,0.16084289550781197,-0.00649624884703029,-0.00846698805368892,0.00315398167898084,No
1493002409.2,40.4533241923275,-79.9471675772556,0.25,0.0459442138671875,-0.96710205078125,0.170867919921875,-0.009653160003210209,-0.00738308149002667,0.00098643486776535,No
1493002409.4,40.4533241923275,-79.9471675772556,0.25,0.0380401611328125,-0.9687652587890621,0.18170166015625,-0.016064187695358,-0.008404936400290079,0.0019896476503982,No
1493002409.6,40.4533241923275,-79.9471675772556,0.25,0.0446929931640625,-0.9501495361328121,0.23765563964843803,-0.0107165602264789,-0.00524855787632816,0.0020362529694745897,No
1493002409.8,40.4533241923275,-79.9471675772556,0.25,0.04833984375,-0.9631500244140621,0.22782897949218803,-0.0118039288995582,-0.0063050338807626,0.00309406055445406,No
1493002410.0,40.4533241923275,-79.9471675772556,0.25,0.0430450439453125,-0.9509735107421879,0.22021484375,-0.0192490620429837,-0.00519289780954551,0.00301496467007871,No
1493002410.2,40.4533235441479,-79.94716961583809,0.270000010728836,0.048828125,-0.9517059326171879,0.22784423828125,-0.0159802981210205,-0.00308740265172886,-0.00122185830812835,No
1493002410.4,40.4533235441479,-79.94716961583809,0.270000010728836,0.0446929931640625,-0.95562744140625,0.22279357910156197,-0.0160109244735564,-0.00521446941437515,-0.000150468601589477,No
1493002410.6,40.4533235441479,-79.94716961583809,0.270000010728836,0.045867919921875,-0.95550537109375,0.228057861328125,-0.014991466408274,-0.00734819407974663,0.0019979034497774398,No
1493002410.8,40.4533235441479,-79.94716961583809,0.270000010728836,0.045013427734375,-0.95684814453125,0.22564697265625,-0.0128247185453856,-0.00629890861025541,-0.00011504855909142299,No
1493002411.0,40.4533235441479,-79.94716961583809,0.270000010728836,0.046875,-0.9563751220703121,0.22581481933593803,-0.0138961082519245,-0.00522805153593455,0.000937432703707892,No
1493002411.2,40.45332390914621,-79.9471684678859,0.33000001311302196,0.0468597412109375,-0.9526214599609379,0.22509765625,-0.0149608400557381,-0.00522112731710035,0.000926513743238567,No
1493002411.4,40.45332390914621,-79.9471684678859,0.33000001311302196,0.0455474853515625,-0.9566650390625,0.225677490234375,-0.0128473554146513,-0.00736230883352405,0.000953677986357375,No
1493002411.6,40.45332390914621,-79.9471684678859,0.33000001311302196,0.0465240478515625,-0.95556640625,0.22607421875,-0.0117453393555765,-0.00630609914519863,-0.00117019298298082,No
1493002411.8,40.45332390914621,-79.9471684678859,0.33000001311302196,0.0461273193359375,-0.95611572265625,0.22496032714843803,-0.0149382031864725,-0.004157727093831711,-0.000142212802210231,No
1493002412.0,40.45332390914621,-79.9471684678859,0.33000001311302196,0.0463714599609375,-0.9570465087890621,0.22540283203125,-0.013881460865928999,-0.00522831785204356,-0.000128630680650827,No
1493002412.2,40.4533244474598,-79.94716677484179,0.610000014305115,0.04595947265625,-0.9580230712890621,0.22575378417968803,-0.0149395347670175,-0.00628532648869601,-0.00120294986438879,No
1493002412.4,40.4533244474598,-79.94716677484179,0.610000014305115,0.046417236328125,-0.9549560546875,0.22840881347656197,-0.0149461926697427,-0.00522139363320935,-0.000139549641120152,No
1493002412.6,40.4533244474598,-79.94716677484179,0.610000014305115,0.0466461181640625,-0.9571685791015621,0.22328186035156197,-0.011729360389036,-0.0041787660664433296,-0.0011755193051609801,No
1493002412.8,40.4533244474598,-79.94716677484179,0.610000014305115,0.0470123291015625,-0.9538421630859379,0.22596740722656197,-0.0128247185453856,-0.00629890861025541,-0.00011504855909142299,No
1493002413.0,40.4533244474598,-79.94716677484179,0.610000014305115,0.0467529296875,-0.955322265625,0.22392272949218803,-0.0127940921928497,-0.0041718418476091295,-0.0011864382656303,No
1493002413.2,40.4533241959304,-79.94716756592409,0.610000014305115,0.0443878173828125,-0.958526611328125,0.22331237792968803,-0.0149688295390084,-0.0062847938564779895,0.0009291769043286461,No
1493002413.4,40.4533241959304,-79.94716756592409,0.610000014305115,0.0469207763671875,-0.9546356201171879,0.22930908203125,-0.014923555800476999,-0.00415799340994071,-0.00120827618656895,No
1493002413.6,40.4533241959304,-79.94716756592409,0.610000014305115,0.0449981689453125,-0.956695556640625,0.225250244140625,-0.0128020816761199,-0.005235508386986771,-0.00118377510454022,No
1493002413.8,40.4533241959304,-79.94716756592409,0.610000014305115,0.0460052490234375,-0.9594879150390621,0.22642517089843803,-0.0138974398324695,-0.007355650930798859,-0.000123304358470669,No
1493002414.0,40.4533241959304,-79.94716756592409,0.610000014305115,0.0437469482421875,-0.95501708984375,0.2266845703125,-0.0149541821530129,-0.006285060172587,-0.000136886480030073,No
1493002414.2,40.453322547133105,-79.9471727515387,0.0,0.0478057861328125,-0.95806884765625,0.225555419921875,-0.014923555800476999,-0.00415799340994071,-0.00120827618656895,No
1493002414.4,40.453322547133105,-79.9471727515387,0.0,0.050079345703125,-0.9576568603515621,0.227081298828125,-0.0160029349902861,-0.0041508028749975,-0.000153131762679556,No
1493002414.6,40.453322547133105,-79.9471727515387,0.0,0.04559326171875,-0.9561767578125,0.22636413574218803,-0.0149608400557381,-0.00522112731710035,0.000926513743238567,No
1493002414.8,40.453322547133105,-79.9471727515387,0.0,0.04718017578125,-0.9556884765625,0.224578857421875,-0.0138894503491993,-0.00629198439142121,-0.000125967519560748,No
1493002415.0,40.453322547133105,-79.9471727515387,0.0,0.0445556640625,-0.9547882080078121,0.22758483886718803,-0.0117679762248421,-0.00736949936846727,-0.00010146643753201899,No
1493002415.2,40.4533233204633,-79.94717031934641,0.0,0.0467529296875,-0.9541015625,0.22808837890625,-0.0128020816761199,-0.005235508386986771,-0.00118377510454022,No
1493002415.4,40.4533233204633,-79.94717031934641,0.0,0.04400634765625,-0.954559326171875,0.22535705566406197,-0.0149315452837473,-0.00522165994931836,-0.00120561302547887,No
1493002415.6,40.4533233204633,-79.94717031934641,0.0,0.0478057861328125,-0.955596923828125,0.227569580078125,-0.0128167290621153,-0.00523524207087777,-0.000117711720181502,No
1493002415.8,40.4533233204633,-79.94717031934641,0.0,0.0444488525390625,-0.95550537109375,0.22698974609375,-0.0149461926697427,-0.00522139363320935,-0.000139549641120152,No
1493002416.0,40.4533233204633,-79.94717031934641,0.0,0.0488128662109375,-0.954193115234375,0.22430419921875,-0.0149608400557381,-0.00522112731710035,0.000926513743238567,No
1493002416.2,40.4533237799903,-79.94716887409291,0.0,0.0461578369140625,-0.955718994140625,0.223602294921875,-0.0128167290621153,-0.00523524207087777,-0.000117711720181502,No
1493002416.4,40.4533237799903,-79.94716887409291,0.0,0.0433197021484375,-0.9554443359375,0.22654724121093803,-0.0128167290621153,-0.00523524207087777,-0.000117711720181502,No
1493002416.6,40.4533237799903,-79.94716887409291,0.0,0.044921875,-0.9528961181640621,0.22529602050781197,-0.0128167290621153,-0.00523524207087777,-0.000117711720181502,No
1493002416.8,40.4533237799903,-79.94716887409291,0.0,0.04443359375,-0.9531402587890621,0.223785400390625,-0.0138894503491993,-0.00629198439142121,-0.000125967519560748,No
1493002417.0,40.4533237799903,-79.94716887409291,0.0,0.0481414794921875,-0.951934814453125,0.23237609863281197,-0.0333102862824931,-0.0168008180528739,0.0124968834151968,No
1493002417.2,40.453323779594,-79.9471688753391,0.0,0.0474700927734375,-0.958099365234375,0.22569274902343803,-0.0137989028721366,-0.00203838349834665,-0.00440087370135594,No
1493002417.4,40.453323779594,-79.9471688753391,0.0,0.0417327880859375,-0.954925537109375,0.22651672363281197,-0.0139267346044604,-0.0073551182985808405,0.00200882241024677,No
1493002417.6,40.453323779594,-79.9471688753391,0.0,0.0478515625,-0.9571533203125,0.224822998046875,-0.0128020816761199,-0.005235508386986771,-0.00118377510454022,No
1493002417.8,40.453323779594,-79.9471688753391,0.0,0.0445404052734375,-0.95635986328125,0.22862243652343803,-0.0128313764481108,-0.00523497575476876,0.000948351664177217,No
1493002418.0,40.453323779594,-79.9471688753391,0.0,0.047210693359375,-0.955047607421875,0.22639465332031197,-0.0149315452837473,-0.00522165994931836,-0.00120561302547887,No
1493002418.2,40.4533237791976,-79.94716887658609,0.0,0.0438232421875,-0.9555206298828121,0.22288513183593803,-0.0117812920302925,-0.00524163365749396,0.0020253340090052602,No
1493002418.4,40.4533237791976,-79.94716887658609,0.0,0.047882080078125,-0.9544677734375,0.22645568847656197,-0.0160109244735564,-0.00521446941437515,-0.000150468601589477,No
1493002418.6,40.4533237791976,-79.94716887658609,0.0,0.044891357421875,-0.9561004638671879,0.22676086425781197,-0.014923555800476999,-0.00415799340994071,-0.00120827618656895,No
1493002418.8,40.4533237791976,-79.94716887658609,0.0,0.0460662841796875,-0.9554290771484379,0.22407531738281197,-0.0138881187686542,-0.0041643849965569,0.0009347695426178131,No
1493002419.0,40.4533237791976,-79.94716887658609,0.0,0.044403076171875,-0.9557037353515621,0.225921630859375,-0.0128233869648405,-0.00417130921539111,0.0009456885030871369,No
1493002419.2,40.453323778800296,-79.94716887783541,0.0,0.044464111328125,-0.9582672119140621,0.226287841796875,-0.0117453393555765,-0.00630609914519863,-0.00117019298298082,No
1493002419.4,40.453323778800296,-79.94716887783541,0.0,0.0467987060546875,-0.955169677734375,0.22727966308593803,-0.0149608400557381,-0.00522112731710035,0.000926513743238567,No
1493002419.6,40.453323778800296,-79.94716887783541,0.0,0.0448760986328125,-0.9589996337890621,0.22596740722656197,-0.0128247185453856,-0.00629890861025541,-0.00011504855909142299,No
1493002419.8,40.453323778800296,-79.94716887783541,0.0,0.0477142333984375,-0.955474853515625,0.22569274902343803,-0.0117666446442971,-0.00524189997360296,0.000959270624646542,No
1493002420.0,40.453323778800296,-79.94716887783541,0.0,0.04754638671875,-0.9560546875,0.22808837890625,-0.0128007500955749,-0.00310790899212247,-0.000123038042361661,No
1493002420.2,40.45332377840229,-79.9471688790873,0.0,0.045562744140625,-0.9579925537109379,0.226348876953125,-0.0149461926697427,-0.00522139363320935,-0.000139549641120152,No
1493002420.4,40.45332377840229,-79.9471688790873,0.0,0.045379638671875,-0.9552764892578121,0.228240966796875,-0.0138748029632038,-0.00629225070753022,-0.0011920309039194698,No
1493002420.6,40.45332377840229,-79.9471688790873,0.0,0.044891357421875,-0.956939697265625,0.22850036621093803,-0.0128167290621153,-0.00523524207087777,-0.000117711720181502,No
1493002420.8,40.45332377840229,-79.9471688790873,0.0,0.04376220703125,-0.9590606689453121,0.22257995605468803,-0.0128100711593901,-0.00629917492636442,-0.00118111194345014,No
1493002421.0,40.45332377840229,-79.9471688790873,0.0,0.045745849609375,-0.9554443359375,0.22515869140625,-0.0128153974815703,-0.0031076426760134604,0.000943025341997058,No
1493002421.2,40.4533237274152,-79.9471690394463,0.0,0.0474853515625,-0.949920654296875,0.263229370117188,-0.0105674232054344,-0.000996022247689635,-0.00650290674975548,No
1493002421.4,40.4533237274152,-79.9471690394463,0.0,0.058746337890625,-0.929229736328125,0.32952880859375,0.0010554107399984,-0.0031981901530761603,-0.00104715494061916,No
1493002421.6,40.4533237274152,-79.9471690394463,0.0,0.066497802734375,-0.9134979248046879,0.39923095703125,0.00435613259504261,0.00316197116225108,-0.005294630563186529,No
1493002421.8,40.4533237274152,-79.9471690394463,0.0,0.0648193359375,-0.9019317626953121,0.448822021484375,-0.0125064707951211,-0.000985635919438326,-0.0203835686673575,No
1493002422.0,40.4533237274152,-79.9471690394463,0.0,0.0643157958984375,-0.888824462890625,0.4730224609375,-0.00433349572577694,-0.0138005007687906,-0.00214118151642371,No
1493002422.2,40.45332080982121,-79.94717821553971,0.819999992847443,0.0519256591796875,-0.8950653076171879,0.477996826171875,-0.0255748685802489,-0.0104715494061916,-0.004499676977797879,No
1493002422.4,40.45332080982121,-79.94717821553971,0.819999992847443,0.068695068359375,-0.9020843505859379,0.441925048828125,0.00529835898871264,-0.00535322010716828,-0.000998152776561698,No
1493002422.6,40.45332080982121,-79.94717821553971,0.819999992847443,0.0414581298828125,-0.9028167724609379,0.449478149414062,0.0145925248769802,0.0296830608778052,-0.0383109038613349,No
1493002422.8,40.45332080982121,-79.94717821553971,0.819999992847443,-0.07611083984375,-0.8241729736328121,0.5166015625,0.0243849682052015,0.0211188674443284,0.0193870137874498,No
1493002423.0,40.45332080982121,-79.94717821553971,0.819999992847443,0.0256195068359375,-0.9161834716796879,0.438980102539062,-0.0245447578706063,0.00441552108735138,0.00613459157099753,No
1493002423.2,40.4533134300612,-79.947201425543,3.04999995231628,0.0405731201171875,-0.8921661376953121,0.484939575195312,0.0654461185242612,-0.0408438363741092,0.0199673165889781,No
1493002423.4,40.4533134300612,-79.947201425543,3.04999995231628,0.0720672607421875,-0.88201904296875,0.439193725585938,-0.0124252443818737,0.0117786288692025,-0.0193494632160797,No
1493002423.6,40.4533134300612,-79.947201425543,3.04999995231628,0.122055053710938,-0.9071807861328121,0.377975463867188,0.011730159337363,-0.0809137581354415,0.0323153292992395,No
1493002423.8,40.4533134300612,-79.947201425543,3.04999995231628,0.113800048828125,-0.9353485107421879,0.43817138671875,0.0231631098970732,-0.0192961999942781,0.00881666110481633,No
1493002424.0,40.4533134300612,-79.947201425543,3.04999995231628,0.008819580078125,-0.8943328857421879,0.429397583007812,0.0117248330151829,-0.0543183662254742,0.0471736376530096,No
1493002424.2,40.4532974177508,-79.9472517856877,4.980000019073491,0.08905029296875,-0.7434539794921879,0.398727416992188,-0.03905419212157601,0.0183347988407595,-0.0153741626569184,No
1493002424.4,40.4532974177508,-79.9472517856877,4.980000019073491,0.12652587890625,-0.8600921630859379,0.408477783203125,-0.022450447989367996,-0.0796263860644972,0.0404917664780008,No
1493002424.6,40.4532974177508,-79.9472517856877,4.980000019073491,0.0214996337890625,-1.00624084472656,0.29266357421875,-0.0184197536795331,-0.14453001867470902,0.0993423002465718,No
1493002424.8,40.4532974177508,-79.9472517856877,4.980000019073491,-0.0421142578125,-0.8503265380859379,0.491928100585938,0.00434627889900932,-0.0638455587091236,0.0364605395359478,No
1493002425.0,40.4532974177508,-79.9472517856877,4.980000019073491,0.125778198242188,-0.86981201171875,0.44671630859375,-0.0135600173223565,0.0681564175656349,-0.0610889206647826,No
1493002425.2,40.4532753406459,-79.9473212201519,6.34000015258789,0.10797119140625,-0.84271240234375,0.47357177734375,-0.152610315738119,0.0254518305378873,-0.0400118648495685,No
1493002425.4,40.4532753406459,-79.9473212201519,6.34000015258789,0.15985107421875,-0.9373931884765621,0.411376953125,-0.0895621074593648,0.0633363623087005,-0.0351992664436863,No
1493002425.6,40.4532753406459,-79.9473212201519,6.34000015258789,0.114410400390625,-0.93170166015625,0.370391845703125,-0.0805241376679629,0.035624839585881,-0.0105122957708698,No
1493002425.8,40.4532753406459,-79.9473212201519,6.34000015258789,-0.026031494140625,-0.9139251708984379,0.399368286132812,0.00960948416133292,-0.0713133287218148,0.11436732248458098,No
1493002426.0,40.4532753406459,-79.9473212201519,6.34000015258789,0.087432861328125,-0.843780517578125,0.276931762695312,0.0863266330510275,-0.129271170892991,0.00228366063474295,No
1493002426.2,40.4532753406459,-79.9473212201519,6.34000015258789,0.002105712890625,-0.85565185546875,0.374481201171875,-0.0115671738786502,-0.156269499075888,0.13676024619440302,No
1493002426.4,40.4532487675284,-79.947404794977,8.56999969482422,0.0062255859375,-0.96173095703125,0.306610107421875,0.009026784514823579,-0.0734427923294422,0.0781155747780952,No
1493002426.6,40.4532487675284,-79.947404794977,8.56999969482422,-0.08209228515625,-0.840576171875,0.422073364257812,-0.0201710484123692,-0.148778293245604,0.0694813402079493,No
1493002426.8,40.4532487675284,-79.947404794977,8.56999969482422,-0.14109802246093803,-0.9482269287109379,0.4268798828125,0.00198804975374415,-0.19252390994346302,0.13805880354192598,No
1493002427.0,40.4532487675284,-79.947404794977,8.56999969482422,-0.0096893310546875,-0.8987579345703121,0.336700439453125,-0.154455620057435,0.121191140145691,-0.0861250317565085,Yes
1493002427.2,40.4532487675284,-79.947404794977,8.56999969482422,0.22715759277343803,-0.8568572998046879,0.293853759765625,-0.0461858712046992,-0.19965425744604104,0.15251097982945902,Yes
1493002427.4,40.4532150722492,-79.94751974917729,9.85999965667725,0.32037353515625,-0.9629974365234379,0.3438720703125,-0.012840431195817,0.15749109106790699,-0.14234436236808098,Yes
1493002427.6,40.4532150722492,-79.94751974917729,9.85999965667725,-0.01708984375,-1.33345031738281,0.395492553710938,-0.157942763188784,-0.0777155679823653,-0.173076975031487,Yes
1493002427.8,40.4532150722492,-79.94751974917729,9.85999965667725,-1.1899108886718799,-1.00930786132812,0.828094482421875,0.204978182781219,0.7431796032686401,-0.562780266819981,Yes
1493002428.0,40.4532150722492,-79.94751974917729,9.85999965667725,-0.23017883300781197,-1.00685119628906,0.449478149414062,-0.0565476983739795,-0.10173195469270001,0.10737119830094301,Yes
1493002428.2,40.4531803868033,-79.94763655446671,11.119999885559098,0.0980987548828125,-0.8603515625,0.3143310546875,-0.248595967746755,0.331329730171156,-0.25076191666131603,Yes
1493002428.4,40.4531803868033,-79.94763655446671,11.119999885559098,0.131576538085938,-0.9308929443359379,0.23594665527343803,-0.270340145415034,0.249550444681439,-0.340335475713368,Yes
1493002428.6,40.4531803868033,-79.94763655446671,11.119999885559098,0.6099853515625,-0.9298248291015621,-0.047821044921875,-0.184121370388154,-0.0392283628568672,-0.0295054280330969,Yes
1493002428.8,40.4531803868033,-79.94763655446671,11.119999885559098,0.140380859375,-1.02970886230469,0.29974365234375,0.0712241128252972,-0.399304253834339,0.33441846440343,Yes
1493002429.0,40.4531803868033,-79.94763655446671,11.119999885559098,-0.079620361328125,-1.03936767578125,0.28790283203125,0.0260334649199606,-0.22246183533758898,0.154375458908623,Yes
1493002429.2,40.4531424675398,-79.94776424982841,11.869999885559098,0.0877838134765625,-1.05509948730469,0.258529663085938,0.009152219402166309,0.152045725587022,-0.0408148079182274,No
1493002429.4,40.4531424675398,-79.94776424982841,11.869999885559098,-0.11767578125,-0.820098876953125,0.375869750976562,0.0516514767098688,-0.173706279997072,0.0990687936026206,No
1493002429.6,40.4531424675398,-79.94776424982841,11.869999885559098,-0.04730224609375,-0.906158447265625,0.272201538085938,-0.0319400899016473,0.00764194074798237,-0.0739155034229312,No
1493002429.8,40.4531424675398,-79.94776424982841,11.869999885559098,0.0196990966796875,-0.9339447021484379,0.24311828613281197,-0.0037630466202819603,0.08298356693465099,-0.0684903779663308,No
1493002430.0,40.4531424675398,-79.94776424982841,11.869999885559098,-0.020294189453125,-0.929290771484375,0.328704833984375,0.0578531799403363,0.0166530126123745,0.0613235451568186,No
1493002430.2,40.4531040989189,-79.9478961104002,12.0799999237061,0.02923583984375,-0.8290863037109379,0.343154907226562,-0.151765827356455,-0.0500692927062527,0.012436163342343001,No
1493002430.4,40.4531040989189,-79.9478961104002,12.0799999237061,0.03948974609375,-1.21208190917969,0.20372009277343803,0.0713649940469624,0.0208118049706422,0.0102728775888717,No
1493002430.6,40.4531040989189,-79.9478961104002,12.0799999237061,0.01995849609375,-0.948089599609375,0.266632080078125,-0.10185925379280601,-0.0450732025012641,0.0257287992912555,No
1493002430.8,40.4531040989189,-79.9478961104002,12.0799999237061,0.117050170898438,-0.9837646484375,0.294754028320312,0.0270965988271202,-0.12249529013150301,0.0539042446759668,No
1493002431.0,40.4531040989189,-79.9478961104002,12.0799999237061,-0.009979248046875,-1.07325744628906,0.312957763671875,0.0697963921649057,-0.110008526728448,0.0532429817773002,No
1493002431.2,40.4530632304901,-79.9480370939379,12.640000343322802,-0.0527801513671875,-0.567611694335938,0.312286376953125,-0.0963790009016406,0.013411412933529999,0.12372567055511902,No
1493002431.4,40.4530632304901,-79.9480370939379,12.640000343322802,0.23780822753906197,-0.957122802734375,0.347900390625,-0.14623817019788599,0.0434705121572544,-0.18393201963464997,No
1493002431.6,40.4530632304901,-79.9480370939379,12.640000343322802,0.1412353515625,-1.045166015625,0.184814453125,0.0598215223020139,-0.100377204646177,0.00940122496408872,No
1493002431.8,40.4530632304901,-79.9480370939379,12.640000343322802,0.11236572265625,-0.9775390625,0.342559814453125,-0.0343555770103492,0.172514515409262,-0.19591411401113398,No
1493002432.0,40.4530632304901,-79.9480370939379,12.640000343322802,-0.113967895507812,-1.02674865722656,0.244903564453125,-0.0810051045608312,0.130287965797184,-0.0789992116277835,No
1493002432.2,40.4530219712901,-79.9481794255162,13.039999961853,-0.038818359375,-1.18818664550781,0.263198852539062,0.17015601994788798,-0.0298271378927785,0.000752875640165401,No
1493002432.4,40.4530219712901,-79.9481794255162,13.039999961853,0.07232666015625,-0.8520660400390621,0.134536743164062,0.186941391666439,-0.346887118311072,0.234177613605066,No
1493002432.6,40.4530219712901,-79.9481794255162,13.039999961853,-0.124298095703125,-0.944061279296875,0.21861267089843803,-0.290644085565798,0.0316516695555917,-0.143797649374937,No
1493002432.8,40.4530219712901,-79.9481794255162,13.039999961853,0.089080810546875,-1.23445129394531,0.388763427734375,-0.0176903138569603,-0.197696567728724,0.24982315237706304,No
1493002433.0,40.4530219712901,-79.9481794255162,13.039999961853,0.26849365234375,-0.842742919921875,0.21513366699218803,0.16591413696361,-0.23826956061997198,0.118530908532811,No
1493002433.2,40.452981152038,-79.94832128133571,13.130000114440902,0.0239105224609375,-0.718658447265625,0.20660400390625,0.0705447404312179,-0.025981000646485997,0.0445040849763141,No
1493002433.4,40.452981152038,-79.94832128133571,13.130000114440902,-0.212982177734375,-0.9669952392578121,0.258743286132812,-0.05253111881792201,0.153497414697224,-0.12354857034262899,No
1493002433.6,40.452981152038,-79.94832128133571,13.130000114440902,-0.460494995117188,-0.9898223876953121,0.220611572265625,-0.0030213562566949,0.377583778299761,-0.349657338476973,No
1493002433.8,40.452981152038,-79.94832128133571,13.130000114440902,0.0879974365234375,-0.9540252685546879,0.20774841308593803,-0.17737398545032895,0.24790301323111602,-0.209301292178744,No
1493002434.0,40.452981152038,-79.94832128133571,13.130000114440902,0.16221618652343803,-0.9052581787109379,0.16304016113281197,0.0263623653145854,0.16150607272731002,-0.0481265166910399,Yes
1493002434.2,40.4529403629977,-79.9484671326163,13.140000343322802,0.30841064453125,-0.970672607421875,0.14015197753906197,-0.0485973635717659,-0.0518027442597853,0.0209604093594686,Yes
1493002434.4,40.4529403629977,-79.9484671326163,13.140000343322802,0.0702056884765625,-0.8754119873046879,0.195281982421875,-0.0023459786042508,0.0914931655657812,-0.0119884859631007,Yes
1493002434.6,40.4529403629977,-79.9484671326163,13.140000343322802,-0.255340576171875,-0.9194793701171879,0.270050048828125,0.754990456387033,-0.216572254586879,0.118108797500033,Yes
1493002434.8,40.4529403629977,-79.9484671326163,13.140000343322802,-0.073944091796875,-0.7574920654296879,-0.0928955078125,-0.187365633228089,0.177798493328088,0.0146822734057158,Yes
1493002435.0,40.4529403629977,-79.9484671326163,13.140000343322802,0.075347900390625,-1.0303955078125,0.2501220703125,0.00684672084648471,-0.119171931407193,0.0568869850968556,Yes
1493002435.2,40.4528995425055,-79.9486130963605,13.130000114440902,-0.0100860595703125,-1.19615173339844,0.304000854492188,0.0912295126178634,-0.0761075513161755,0.0619046469066739,Yes
1493002435.4,40.4528995425055,-79.9486130963605,13.130000114440902,-0.0687408447265625,-0.8999176025390621,0.28533935546875,0.0105674232054344,0.0126979520774978,0.0128699922839169,Yes
1493002435.6,40.4528995425055,-79.9486130963605,13.130000114440902,-0.0904541015625,-0.8930511474609379,0.145233154296875,-0.14638091563231398,-0.034147850445323,0.0167150642657733,Yes
1493002435.8,40.4528995425055,-79.9486130963605,13.130000114440902,0.0626373291015625,-1.2492370605468799,0.118896484375,0.000218911841604513,0.0148769504814006,-0.08533327396442798,Yes
1493002436.0,40.4528995425055,-79.9486130963605,13.130000114440902,-0.0206451416015625,-1.01889038085938,0.327590942382812,-0.0858677703952069,0.0154473995868956,-0.0201108609717334,No
1493002436.2,40.452859001033,-79.94875806240141,13.119999885559098,0.0995635986328125,-0.99139404296875,0.287521362304688,0.109829828619304,0.0131134052075502,-0.00317422170326544,No
1493002436.4,40.452859001033,-79.94875806240141,13.119999885559098,0.020721435546875,-0.926361083984375,0.16239929199218803,0.0557982848432312,-0.0280145904548705,0.0315637852396191,No
1493002436.6,40.452859001033,-79.94875806240141,13.119999885559098,0.14585876464843803,-0.7876129150390621,0.0820159912109375,0.00619877375326843,-0.0617267477458566,0.0577983188218807,No
1493002436.8,40.452859001033,-79.94875806240141,13.119999885559098,0.160064697265625,-1.02157592773438,0.282821655273438,0.030247384712792997,-0.0704009297323537,0.00795486217606668,No
1493002437.0,40.452859001033,-79.94875806240141,13.119999885559098,0.060760498046875,-0.9886932373046879,0.269927978515625,-0.0469885479572491,-0.0762747978326324,0.0455629578257297,No
1493002437.2,40.4528503446285,-79.94891616523259,12.8199996948242,0.0201416015625,-1.07112121582031,0.232696533203125,-0.012669722569943,0.0585783587051649,-0.0535915895639915,No
1493002437.4,40.4528503446285,-79.94891616523259,12.8199996948242,0.114288330078125,-0.8355712890625,0.22833251953125,-0.0499989852534746,-0.0283858351108276,0.0582031193075727,No
1493002437.6,40.4528503446285,-79.94891616523259,12.8199996948242,-0.20610046386718803,-0.996978759765625,0.291824340820312,0.11861240126216699,-0.38364912768241705,0.38177665911998204,No
1493002437.8,40.4528503446285,-79.94891616523259,12.8199996948242,-0.089599609375,-1.06463623046875,0.105987548828125,0.0014258564476284199,0.180797212715517,-0.16038408296006,No
1493002438.0,40.4528503446285,-79.94891616523259,12.8199996948242,-0.0780029296875,-0.8287506103515621,0.109146118164062,-0.102233694242071,0.0910766471712928,-0.0279370924671492,No
1493002438.2,40.452813883349705,-79.9490542151778,12.2600002288818,0.125762939453125,-0.9864959716796879,0.0819549560546875,-0.21076363393330702,0.0396672518045122,0.0147991861775703,No
1493002438.4,40.452813883349705,-79.9490542151778,12.2600002288818,0.0916748046875,-0.953460693359375,0.15226745605468803,0.0190754239399106,-0.0543649715445505,0.0547125140668059,No
1493002438.6,40.452813883349705,-79.9490542151778,12.2600002288818,0.06524658203125,-1.04966735839844,0.22425842285156197,0.0251508933347083,-0.074613251628532,0.0665553251182792,No
1493002438.8,40.452813883349705,-79.9490542151778,12.2600002288818,0.02520751953125,-0.971893310546875,0.121826171875,-0.0980123175981862,-0.0525276567085049,0.12921018450402802,No
1493002439.0,40.452813883349705,-79.9490542151778,12.2600002288818,0.121475219726562,-0.897186279296875,0.0432891845703125,-0.0159904181331628,-0.00309965319274323,-0.0779893409424254,No
1493002439.2,40.4527708003674,-79.94918069809671,11.3199996948242,0.115814208984375,-0.918212890625,0.0595550537109375,-0.10381055192350698,0.108101437071842,-0.058917379111932,No
1493002439.4,40.4527708003674,-79.94918069809671,11.3199996948242,0.119522094726562,-0.9605255126953121,0.108688354492188,0.0391852196472079,0.0433514688565279,-0.0380943888647114,No
1493002439.6,40.4527708003674,-79.94918069809671,11.3199996948242,0.109893798828125,-0.85821533203125,0.0619659423828125,-0.0429416083647647,0.0151643055630202,-0.0441935603932109,No
1493002439.8,40.4527708003674,-79.94918069809671,11.3199996948242,0.308212280273438,-1.08331298828125,-0.033477783203125,-0.0112571819277649,0.21809957747203898,-0.224583043145837,No
1493002440.0,40.4527708003674,-79.94918069809671,11.3199996948242,0.21148681640625,-0.877197265625,-0.0016632080078125,-0.11591222223293599,0.0985979467218946,-0.113393670790048,No
1493002440.2,40.4527067961886,-79.94928417553459,10.0600004196167,-0.0404052734375,-0.9904022216796879,0.0555572509765625,-0.0540400658915609,-0.117709855968739,0.0711868285700361,No
1493002440.4,40.4527067961886,-79.94928417553459,10.0600004196167,-0.01324462890625,-1.21165466308594,-0.01348876953125,-0.0932146328944085,0.0537662929315007,-0.16209143553491,No
1493002440.6,40.4527067961886,-79.94928417553459,10.0600004196167,0.0887603759765625,-0.984466552734375,-0.0107879638671875,-0.16448987841263502,0.21591605169428305,-0.15684234502636402,No
1493002440.8,40.4527067961886,-79.94928417553459,10.0600004196167,0.400970458984375,-0.9644775390625,-0.13726806640625,-0.0760782565441846,0.116431006013283,-0.0575887280440915,No
1493002441.0,40.4527067961886,-79.94928417553459,10.0600004196167,-0.163330078125,-1.19642639160156,0.024383544921875,0.108169613995748,-0.202785335939648,0.15516561880405,No
1493002441.2,40.4526782732496,-79.9493779811069,8.13000011444092,-0.031219482421875,-1.03767395019531,-0.15373229980468803,0.138098484642168,-0.106186890564184,0.122170118162404,No
1493002441.4,40.4526782732496,-79.9493779811069,8.13000011444092,-0.064727783203125,-1.09971618652344,0.07342529296875,-0.0204075371171682,-0.065809107380839,0.0543378073014317,No
1493002441.6,40.4526782732496,-79.9493779811069,8.13000011444092,-0.116302490234375,-0.9163360595703121,-0.114486694335938,0.00171614100644706,-0.0914817139730939,0.0578292114905256,No
1493002441.8,40.4526782732496,-79.9493779811069,8.13000011444092,0.19004821777343803,-0.949371337890625,-0.07843017578125,-0.15372591391875304,0.152028415039936,-0.12244841849631699,No
1493002442.0,40.4526782732496,-79.9493779811069,8.13000011444092,0.082916259765625,-1.09295654296875,-0.0023040771484375,0.0747661170751025,-0.19298916418589998,0.18891719087916894,No
1493002442.2,40.4526568339986,-79.9494484900122,5.42000007629395,0.001190185546875,-1.00265502929688,-0.0966644287109375,0.0532435144095182,-0.11521314244679,0.0925368583969833,No
1493002442.4,40.4526568339986,-79.9494484900122,5.42000007629395,-0.085113525390625,-1.07408142089844,0.003814697265625,0.0038187066870646203,0.0148612378309692,-0.0373167458264083,No
1493002442.6,40.4526568339986,-79.9494484900122,5.42000007629395,0.0106201171875,-1.07350158691406,-0.0240020751953125,0.00207007511531859,0.0265700918796116,-0.0586891462065122,No
1493002442.8,40.4526568339986,-79.9494484900122,5.42000007629395,0.0376129150390625,-0.99664306640625,-0.011749267578125,-0.000952879038030351,0.0031963259403131,-0.006415288749891879,No
1493002443.0,40.4526568339986,-79.9494484900122,5.42000007629395,0.0398406982421875,-1.0185546875,0.029754638671875,-0.0306553809917931,-0.0476623277130391,0.0349942030397502,No
1493002443.2,40.452645021944,-79.94948733722029,2.75999999046326,0.01141357421875,-0.9744110107421879,0.11749267578125,0.00168471570558413,-0.0202181863636636,0.0213937056688245,No
1493002443.4,40.452645021944,-79.94948733722029,2.75999999046326,0.0379638671875,-0.95892333984375,0.20771789550781197,0.0209484251345633,-0.0150255548702271,0.0173126776143871,No
1493002443.6,40.452645021944,-79.94948733722029,2.75999999046326,0.0516510009765625,-0.945465087890625,0.265396118164062,-0.00770612293025328,-0.0180317311087085,0.008497348090115821,No
1493002443.8,40.452645021944,-79.94948733722029,2.75999999046326,0.0538330078125,-0.9539794921875,0.29278564453125,-0.0115456022738205,-0.014820225150182,-0.0203380286127171,No
1493002444.0,40.452645021944,-79.94948733722029,2.75999999046326,0.07403564453125,-0.93255615234375,0.299606323242188,-0.0298364589565937,-0.00299712149077517,-0.000297741409870859,No
1493002444.2,40.4526377857055,-79.9495111355915,2.22000002861023,0.0630645751953125,-0.9352264404296879,0.302749633789062,0.0135725341794798,-0.0319994783939561,0.00235396808752104,No
1493002444.4,40.4526377857055,-79.9495111355915,2.22000002861023,0.0636138916015625,-0.889251708984375,0.358978271484375,6.25842856168621e-05,-0.0170221267394595,-0.0138162134192221,No
1493002444.6,40.4526377857055,-79.9495111355915,2.22000002861023,0.1005859375,-0.9414215087890621,0.363357543945312,0.0101311974188794,0.0222677551385885,-0.0276753037319944,No
1493002444.8,40.4526377857055,-79.9495111355915,2.22000002861023,0.073486328125,-0.9072113037109379,0.304550170898438,0.0169576782410795,0.0434944806070651,-0.0479182574937957,No
